"success","trial_type","trial_index","time_elapsed","internal_node_id","rt","stimulus","response","expected_response","correct","uid","text1","correct_response","loop_step"
"true","fullscreen","0","7014","0.0-0.0","","","","","","","","",""
"","html-keyboard-response","1","9706","0.0-1.0","2688","Please make sure that your keyboard is in English mode. Press 'A' to continue","a","","","","","",""
"","html-keyboard-response","2","39395","0.0-2.0-1.0","29686","<p style=""font-size: 25px;"">Please press space to start the next program<br>>>>>>></p>"," ","","","","","",""
"","html-keyboard-response","3","43194","0.0-2.0-2.0","3797","<div><div style="" font-size:25px; color:green;""><a style=""white-space:pre-wrap;""> a = 18</a><a style=""""></a></div></div>","","null","","28","a = 18","",""
"","html-keyboard-response","4","52266","0.0-2.0-4.0-0.0-0.0","8551","<div><div style=""""><a style=""white-space:pre-wrap;""> while a >= 10:
   a /= 3
   a *= 2</a><a style=""""></a></div></div>","6","6","1","29","while a >= 10:
   a /= 3
   a *= 2","6","0"
"","html-keyboard-response","5","55410","0.0-2.0-4.0-1.0-0.0","2625","<div><div style=""""><a style=""white-space:pre-wrap;""> while a >= 10:
   a /= 3
   a *= 2</a><a style=""""></a></div></div>","12","12","1","29","while a >= 10:
   a /= 3
   a *= 2","12","1"
"","html-keyboard-response","6","56463","0.0-2.0-4.0-2.0-0.0","541","<div><div style=""""><a style=""white-space:pre-wrap;""> while a >= 10:
   a /= 3
   a *= 2</a><a style=""""></a></div></div>","backspace","4","0","29","while a >= 10:
   a /= 3
   a *= 2","4","2"
"","html-keyboard-response","8","79824","0.0-2.0-4.0-3.0-0.0","19341","<div><div style=""""><a style=""white-space:pre-wrap;""> while a >= 10:
   a /= 3
   a *= 2</a><a style=""""></a></div></div>","backspace","8","0","29","while a >= 10:
   a /= 3
   a *= 2","8","3"
"","html-keyboard-response","10","92896","0.0-2.0-4.0-4.0-0.0","9029","<div><div style=""""><a style=""white-space:pre-wrap;""> while a >= 10:
   a /= 3
   a *= 2</a><a style=""""></a></div></div>","backspace","","1","","","backspace",""
"","html-keyboard-response","11","98216","0.0-2.0-5.0-0.0-0.0","4808","<div><div style=""""><a style=""white-space:pre-wrap;""> for i in [1, 2, 3]:
   a /= 2</a><a style=""""></a></div></div>","4","4","1","30","for i in [1, 2, 3]:
   a /= 2","4","0"
"","html-keyboard-response","12","100112","0.0-2.0-5.0-1.0-0.0","1386","<div><div style=""""><a style=""white-space:pre-wrap;""> for i in [1, 2, 3]:
   a /= 2</a><a style=""""></a></div></div>","2","2","1","30","for i in [1, 2, 3]:
   a /= 2","2","1"
"","html-keyboard-response","13","101447","0.0-2.0-5.0-2.0-0.0","821","<div><div style=""""><a style=""white-space:pre-wrap;""> for i in [1, 2, 3]:
   a /= 2</a><a style=""""></a></div></div>","1","1","1","30","for i in [1, 2, 3]:
   a /= 2","1","2"
"","html-keyboard-response","14","103024","0.0-2.0-5.0-3.0-0.0","1068","<div><div style=""""><a style=""white-space:pre-wrap;""> for i in [1, 2, 3]:
   a /= 2</a><a style=""""></a></div></div>","backspace","","1","","","backspace",""
"","html-keyboard-response","15","107743","0.0-2.0-6.0-0.0-0.0","4197","<div><div style=""""><a style=""white-space:pre-wrap;""> for i in [1, 2, 3, 4]:
   a += 2</a><a style=""""></a></div></div>","3","3","1","31","for i in [1, 2, 3, 4]:
   a += 2","3","0"
"","html-keyboard-response","16","110088","0.0-2.0-6.0-1.0-0.0","1831","<div><div style=""""><a style=""white-space:pre-wrap;""> for i in [1, 2, 3, 4]:
   a += 2</a><a style=""""></a></div></div>","5","5","1","31","for i in [1, 2, 3, 4]:
   a += 2","5","1"
"","html-keyboard-response","17","112056","0.0-2.0-6.0-2.0-0.0","1449","<div><div style=""""><a style=""white-space:pre-wrap;""> for i in [1, 2, 3, 4]:
   a += 2</a><a style=""""></a></div></div>","7","7","1","31","for i in [1, 2, 3, 4]:
   a += 2","7","2"
"","html-keyboard-response","18","114000","0.0-2.0-6.0-3.0-0.0","1433","<div><div style=""""><a style=""white-space:pre-wrap;""> for i in [1, 2, 3, 4]:
   a += 2</a><a style=""""></a></div></div>","9","9","1","31","for i in [1, 2, 3, 4]:
   a += 2","9","3"
"","html-keyboard-response","19","115207","0.0-2.0-6.0-4.0-0.0","701","<div><div style=""""><a style=""white-space:pre-wrap;""> for i in [1, 2, 3, 4]:
   a += 2</a><a style=""""></a></div></div>","backspace","","1","","","backspace",""
"","html-keyboard-response","20","119607","0.0-2.0-7.0-0.0-0.0","3880","<div><div style=""""><a style=""white-space:pre-wrap;""> for i in [1, 2]:
   a += 9
   a /= 3</a><a style=""""></a></div></div>","18","18","1","32","for i in [1, 2]:
   a += 9
   a /= 3","18","0"
"","html-keyboard-response","21","122103","0.0-2.0-7.0-1.0-0.0","1987","<div><div style=""""><a style=""white-space:pre-wrap;""> for i in [1, 2]:
   a += 9
   a /= 3</a><a style=""""></a></div></div>","6","6","1","32","for i in [1, 2]:
   a += 9
   a /= 3","6","1"
"","html-keyboard-response","22","128318","0.0-2.0-7.0-2.0-0.0","5713","<div><div style=""""><a style=""white-space:pre-wrap;""> for i in [1, 2]:
   a += 9
   a /= 3</a><a style=""""></a></div></div>","15","15","1","32","for i in [1, 2]:
   a += 9
   a /= 3","15","2"
"","html-keyboard-response","23","130071","0.0-2.0-7.0-3.0-0.0","1246","<div><div style=""""><a style=""white-space:pre-wrap;""> for i in [1, 2]:
   a += 9
   a /= 3</a><a style=""""></a></div></div>","5","5","1","32","for i in [1, 2]:
   a += 9
   a /= 3","5","3"
"","html-keyboard-response","24","130967","0.0-2.0-7.0-4.0-0.0","391","<div><div style=""""><a style=""white-space:pre-wrap;""> for i in [1, 2]:
   a += 9
   a /= 3</a><a style=""""></a></div></div>","backspace","","1","","","backspace",""
"","html-keyboard-response","25","139120","0.0-2.0-8.0-0.0-0.0","7633","<div><div style=""""><a style=""white-space:pre-wrap;""> for i in [1, 2, 3]:
   a = round_down(a*1.5)</a><a style=""""></a></div></div>","7","7","1","33","for i in [1, 2, 3]:
   a = round_down(a*1.5)","7","0"
"","html-keyboard-response","26","145919","0.0-2.0-8.0-1.0-0.0","6294","<div><div style=""""><a style=""white-space:pre-wrap;""> for i in [1, 2, 3]:
   a = round_down(a*1.5)</a><a style=""""></a></div></div>","10","10","1","33","for i in [1, 2, 3]:
   a = round_down(a*1.5)","10","1"
"","html-keyboard-response","27","152239","0.0-2.0-8.0-2.0-0.0","5814","<div><div style=""""><a style=""white-space:pre-wrap;""> for i in [1, 2, 3]:
   a = round_down(a*1.5)</a><a style=""""></a></div></div>","15","15","1","33","for i in [1, 2, 3]:
   a = round_down(a*1.5)","15","2"
"","html-keyboard-response","28","153623","0.0-2.0-8.0-3.0-0.0","877","<div><div style=""""><a style=""white-space:pre-wrap;""> for i in [1, 2, 3]:
   a = round_down(a*1.5)</a><a style=""""></a></div></div>","backspace","","1","","","backspace",""
"","html-keyboard-response","29","162031","0.0-2.0-9.0-0.0-0.0","7895","<div><div style=""""><a style=""white-space:pre-wrap;""> while a >= 8:
   a = average(a,3)</a><a style=""""></a></div></div>","9","9","1","34","while a >= 8:
   a = average(a,3)","9","0"
"","html-keyboard-response","30","167303","0.0-2.0-9.0-1.0-0.0","4758","<div><div style=""""><a style=""white-space:pre-wrap;""> while a >= 8:
   a = average(a,3)</a><a style=""""></a></div></div>","6","6","1","34","while a >= 8:
   a = average(a,3)","6","1"
"","html-keyboard-response","31","168175","0.0-2.0-9.0-2.0-0.0","349","<div><div style=""""><a style=""white-space:pre-wrap;""> while a >= 8:
   a = average(a,3)</a><a style=""""></a></div></div>","backspace","","1","","","backspace",""
"","html-keyboard-response","32","173879","0.0-2.0-10.0-0.0-0.0","5184","<div><div style=""""><a style=""white-space:pre-wrap;""> while a <= 11:
   a *= 2
   a -= 5</a><a style=""""></a></div></div>","12","12","1","35","while a <= 11:
   a *= 2
   a -= 5","12","0"
"","html-keyboard-response","33","177807","0.0-2.0-10.0-1.0-0.0","3411","<div><div style=""""><a style=""white-space:pre-wrap;""> while a <= 11:
   a *= 2
   a -= 5</a><a style=""""></a></div></div>","7","7","1","35","while a <= 11:
   a *= 2
   a -= 5","7","1"
"","html-keyboard-response","34","180657","0.0-2.0-10.0-2.0-0.0","2329","<div><div style=""""><a style=""white-space:pre-wrap;""> while a <= 11:
   a *= 2
   a -= 5</a><a style=""""></a></div></div>","14","14","1","35","while a <= 11:
   a *= 2
   a -= 5","14","2"
"","html-keyboard-response","35","182793","0.0-2.0-10.0-3.0-0.0","1626","<div><div style=""""><a style=""white-space:pre-wrap;""> while a <= 11:
   a *= 2
   a -= 5</a><a style=""""></a></div></div>","9","9","1","35","while a <= 11:
   a *= 2
   a -= 5","9","3"
"","html-keyboard-response","36","184801","0.0-2.0-10.0-4.0-0.0","1503","<div><div style=""""><a style=""white-space:pre-wrap;""> while a <= 11:
   a *= 2
   a -= 5</a><a style=""""></a></div></div>","18","18","1","35","while a <= 11:
   a *= 2
   a -= 5","18","4"
"","html-keyboard-response","37","187465","0.0-2.0-10.0-5.0-0.0","2157","<div><div style=""""><a style=""white-space:pre-wrap;""> while a <= 11:
   a *= 2
   a -= 5</a><a style=""""></a></div></div>","13","13","1","35","while a <= 11:
   a *= 2
   a -= 5","13","5"
"","html-keyboard-response","38","188809","0.0-2.0-10.0-6.0-0.0","832","<div><div style=""""><a style=""white-space:pre-wrap;""> while a <= 11:
   a *= 2
   a -= 5</a><a style=""""></a></div></div>","backspace","","1","","","backspace",""
"","html-keyboard-response","39","194249","0.0-2.0-11.0-0.0-0.0","4921","<div><div style=""""><a style=""white-space:pre-wrap;""> for i in [1, 2, 3]:
   a += 4
   a -= 7</a><a style=""""></a></div></div>","17","17","1","36","for i in [1, 2, 3]:
   a += 4
   a -= 7","17","0"
"","html-keyboard-response","40","196025","0.0-2.0-11.0-1.0-0.0","1257","<div><div style=""""><a style=""white-space:pre-wrap;""> for i in [1, 2, 3]:
   a += 4
   a -= 7</a><a style=""""></a></div></div>","10","10","1","36","for i in [1, 2, 3]:
   a += 4
   a -= 7","10","1"
"","html-keyboard-response","41","199969","0.0-2.0-11.0-2.0-0.0","3441","<div><div style=""""><a style=""white-space:pre-wrap;""> for i in [1, 2, 3]:
   a += 4
   a -= 7</a><a style=""""></a></div></div>","14","14","1","36","for i in [1, 2, 3]:
   a += 4
   a -= 7","14","2"
"","html-keyboard-response","42","201329","0.0-2.0-11.0-3.0-0.0","841","<div><div style=""""><a style=""white-space:pre-wrap;""> for i in [1, 2, 3]:
   a += 4
   a -= 7</a><a style=""""></a></div></div>","7","7","1","36","for i in [1, 2, 3]:
   a += 4
   a -= 7","7","3"
"","html-keyboard-response","43","205345","0.0-2.0-11.0-4.0-0.0","3498","<div><div style=""""><a style=""white-space:pre-wrap;""> for i in [1, 2, 3]:
   a += 4
   a -= 7</a><a style=""""></a></div></div>","11","11","1","36","for i in [1, 2, 3]:
   a += 4
   a -= 7","11","4"
"","html-keyboard-response","44","211017","0.0-2.0-11.0-5.0-0.0","5154","<div><div style=""""><a style=""white-space:pre-wrap;""> for i in [1, 2, 3]:
   a += 4
   a -= 7</a><a style=""""></a></div></div>","4","4","1","36","for i in [1, 2, 3]:
   a += 4
   a -= 7","4","5"
"","html-keyboard-response","45","212233","0.0-2.0-11.0-6.0-0.0","705","<div><div style=""""><a style=""white-space:pre-wrap;""> for i in [1, 2, 3]:
   a += 4
   a -= 7</a><a style=""""></a></div></div>","backspace","","1","","","backspace",""
"","html-keyboard-response","46","216833","0.0-3.0-1.0","4084","<p style=""font-size: 25px;"">Please press space to start the next program<br>>>>>>></p>"," ","","","","","",""
"","html-keyboard-response","47","219409","0.0-3.0-2.0","2574","<div><div style="" font-size:25px; color:green;""><a style=""white-space:pre-wrap;""> a = 8</a><a style=""""></a></div></div>","","null","","37","a = 8","",""
"","html-keyboard-response","48","224193","0.0-3.0-4.0-0.0-0.0","4276","<div><div style=""""><a style=""white-space:pre-wrap;""> while a <= 17:
   a -= 2
   a += 6</a><a style=""""></a></div></div>","6","6","1","38","while a <= 17:
   a -= 2
   a += 6","6","0"
"","html-keyboard-response","49","225201","0.0-3.0-4.0-1.0-0.0","498","<div><div style=""""><a style=""white-space:pre-wrap;""> while a <= 17:
   a -= 2
   a += 6</a><a style=""""></a></div></div>","12","12","1","38","while a <= 17:
   a -= 2
   a += 6","12","1"
"","html-keyboard-response","50","228049","0.0-3.0-4.0-2.0-0.0","2343","<div><div style=""""><a style=""white-space:pre-wrap;""> while a <= 17:
   a -= 2
   a += 6</a><a style=""""></a></div></div>","10","10","1","38","while a <= 17:
   a -= 2
   a += 6","10","2"
"","html-keyboard-response","51","229329","0.0-3.0-4.0-3.0-0.0","761","<div><div style=""""><a style=""white-space:pre-wrap;""> while a <= 17:
   a -= 2
   a += 6</a><a style=""""></a></div></div>","16","16","1","38","while a <= 17:
   a -= 2
   a += 6","16","3"
"","html-keyboard-response","52","232961","0.0-3.0-4.0-4.0-0.0","3113","<div><div style=""""><a style=""white-space:pre-wrap;""> while a <= 17:
   a -= 2
   a += 6</a><a style=""""></a></div></div>","14","14","1","38","while a <= 17:
   a -= 2
   a += 6","14","4"
"","html-keyboard-response","53","235033","0.0-3.0-4.0-5.0-0.0","1566","<div><div style=""""><a style=""white-space:pre-wrap;""> while a <= 17:
   a -= 2
   a += 6</a><a style=""""></a></div></div>","20","20","1","38","while a <= 17:
   a -= 2
   a += 6","20","5"
"","html-keyboard-response","54","236329","0.0-3.0-4.0-6.0-0.0","781","<div><div style=""""><a style=""white-space:pre-wrap;""> while a <= 17:
   a -= 2
   a += 6</a><a style=""""></a></div></div>","backspace","","1","","","backspace",""
"","html-keyboard-response","55","239993","0.0-3.0-5.0-0.0-0.0","3144","<div><div style=""""><a style=""white-space:pre-wrap;""> for i in [1, 2]:
   a /= 2</a><a style=""""></a></div></div>","10","10","1","39","for i in [1, 2]:
   a /= 2","10","0"
"","html-keyboard-response","56","241594","0.0-3.0-5.0-1.0-0.0","1095","<div><div style=""""><a style=""white-space:pre-wrap;""> for i in [1, 2]:
   a /= 2</a><a style=""""></a></div></div>","5","5","1","39","for i in [1, 2]:
   a /= 2","5","1"
"","html-keyboard-response","57","242354","0.0-3.0-5.0-2.0-0.0","255","<div><div style=""""><a style=""white-space:pre-wrap;""> for i in [1, 2]:
   a /= 2</a><a style=""""></a></div></div>","backspace","","1","","","backspace",""
"","html-keyboard-response","58","248642","0.0-3.0-6.0-0.0-0.0","5773","<div><div style=""""><a style=""white-space:pre-wrap;""> for i in [1, 2, 3]:
   a = round_up(a*1.5)</a><a style=""""></a></div></div>","8","8","1","40","for i in [1, 2, 3]:
   a = round_up(a*1.5)","8","0"
"","html-keyboard-response","59","254250","0.0-3.0-6.0-1.0-0.0","5101","<div><div style=""""><a style=""white-space:pre-wrap;""> for i in [1, 2, 3]:
   a = round_up(a*1.5)</a><a style=""""></a></div></div>","12","12","1","40","for i in [1, 2, 3]:
   a = round_up(a*1.5)","12","1"
"","html-keyboard-response","60","257602","0.0-3.0-6.0-2.0-0.0","2836","<div><div style=""""><a style=""white-space:pre-wrap;""> for i in [1, 2, 3]:
   a = round_up(a*1.5)</a><a style=""""></a></div></div>","18","18","1","40","for i in [1, 2, 3]:
   a = round_up(a*1.5)","18","2"
"","html-keyboard-response","61","258634","0.0-3.0-6.0-3.0-0.0","530","<div><div style=""""><a style=""white-space:pre-wrap;""> for i in [1, 2, 3]:
   a = round_up(a*1.5)</a><a style=""""></a></div></div>","backspace","","1","","","backspace",""
"","html-keyboard-response","62","264787","0.0-3.0-7.0-0.0-0.0","5637","<div><div style=""""><a style=""white-space:pre-wrap;""> for i in [1, 2, 3, 4]:
   a = average(a,2)</a><a style=""""></a></div></div>","10","10","1","41","for i in [1, 2, 3, 4]:
   a = average(a,2)","10","0"
"","html-keyboard-response","63","269529","0.0-3.0-7.0-1.0-0.0","4231","<div><div style=""""><a style=""white-space:pre-wrap;""> for i in [1, 2, 3, 4]:
   a = average(a,2)</a><a style=""""></a></div></div>","6","6","1","41","for i in [1, 2, 3, 4]:
   a = average(a,2)","6","1"
"","html-keyboard-response","64","273074","0.0-3.0-7.0-2.0-0.0","3025","<div><div style=""""><a style=""white-space:pre-wrap;""> for i in [1, 2, 3, 4]:
   a = average(a,2)</a><a style=""""></a></div></div>","4","4","1","41","for i in [1, 2, 3, 4]:
   a = average(a,2)","4","2"
"","html-keyboard-response","65","278354","0.0-3.0-7.0-3.0-0.0","4766","<div><div style=""""><a style=""white-space:pre-wrap;""> for i in [1, 2, 3, 4]:
   a = average(a,2)</a><a style=""""></a></div></div>","3","3","1","41","for i in [1, 2, 3, 4]:
   a = average(a,2)","3","3"
"","html-keyboard-response","66","279746","0.0-3.0-7.0-4.0-0.0","878","<div><div style=""""><a style=""white-space:pre-wrap;""> for i in [1, 2, 3, 4]:
   a = average(a,2)</a><a style=""""></a></div></div>","backspace","","1","","","backspace",""
"","html-keyboard-response","67","286298","0.0-3.0-8.0-0.0-0.0","6029","<div><div style=""""><a style=""white-space:pre-wrap;""> while a <= 5:
   a += 7
   a /= 2</a><a style=""""></a></div></div>","10","10","1","42","while a <= 5:
   a += 7
   a /= 2","10","0"
"","html-keyboard-response","68","289362","0.0-3.0-8.0-1.0-0.0","2544","<div><div style=""""><a style=""white-space:pre-wrap;""> while a <= 5:
   a += 7
   a /= 2</a><a style=""""></a></div></div>","5","5","1","42","while a <= 5:
   a += 7
   a /= 2","5","1"
"","html-keyboard-response","69","293042","0.0-3.0-8.0-2.0-0.0","3174","<div><div style=""""><a style=""white-space:pre-wrap;""> while a <= 5:
   a += 7
   a /= 2</a><a style=""""></a></div></div>","12","12","1","42","while a <= 5:
   a += 7
   a /= 2","12","2"
"","html-keyboard-response","70","294186","0.0-3.0-8.0-3.0-0.0","637","<div><div style=""""><a style=""white-space:pre-wrap;""> while a <= 5:
   a += 7
   a /= 2</a><a style=""""></a></div></div>","6","6","1","42","while a <= 5:
   a += 7
   a /= 2","6","3"
"","html-keyboard-response","71","295250","0.0-3.0-8.0-4.0-0.0","561","<div><div style=""""><a style=""white-space:pre-wrap;""> while a <= 5:
   a += 7
   a /= 2</a><a style=""""></a></div></div>","backspace","","1","","","backspace",""
"","html-keyboard-response","72","303482","0.0-3.0-9.0-0.0-0.0","7713","<div><div style=""""><a style=""white-space:pre-wrap;""> while a <= 15:
   a += 3</a><a style=""""></a></div></div>","10","9","0","43","while a <= 15:
   a += 3","9","0"
"","html-keyboard-response","74","310506","0.0-3.0-9.0-1.0-0.0","2996","<div><div style=""""><a style=""white-space:pre-wrap;""> while a <= 15:
   a += 3</a><a style=""""></a></div></div>","12","12","1","43","while a <= 15:
   a += 3","12","1"
"","html-keyboard-response","75","313282","0.0-3.0-9.0-2.0-0.0","2273","<div><div style=""""><a style=""white-space:pre-wrap;""> while a <= 15:
   a += 3</a><a style=""""></a></div></div>","15","15","1","43","while a <= 15:
   a += 3","15","2"
"","html-keyboard-response","76","314913","0.0-3.0-9.0-3.0-0.0","1125","<div><div style=""""><a style=""white-space:pre-wrap;""> while a <= 15:
   a += 3</a><a style=""""></a></div></div>","18","18","1","43","while a <= 15:
   a += 3","18","3"
"","html-keyboard-response","77","316610","0.0-3.0-9.0-4.0-0.0","1182","<div><div style=""""><a style=""white-space:pre-wrap;""> while a <= 15:
   a += 3</a><a style=""""></a></div></div>","backspace","","1","","","backspace",""
"","html-keyboard-response","78","321802","0.0-3.0-10.0-0.0-0.0","4683","<div><div style=""""><a style=""white-space:pre-wrap;""> while a >= 12:
   a /= 3
   a *= 2</a><a style=""""></a></div></div>","6","6","1","44","while a >= 12:
   a /= 3
   a *= 2","6","0"
"","html-keyboard-response","79","323914","0.0-3.0-10.0-1.0-0.0","1596","<div><div style=""""><a style=""white-space:pre-wrap;""> while a >= 12:
   a /= 3
   a *= 2</a><a style=""""></a></div></div>","12","12","1","44","while a >= 12:
   a /= 3
   a *= 2","12","1"
"","html-keyboard-response","80","326739","0.0-3.0-10.0-2.0-0.0","2320","<div><div style=""""><a style=""white-space:pre-wrap;""> while a >= 12:
   a /= 3
   a *= 2</a><a style=""""></a></div></div>","4","4","1","44","while a >= 12:
   a /= 3
   a *= 2","4","2"
"","html-keyboard-response","81","328754","0.0-3.0-10.0-3.0-0.0","1505","<div><div style=""""><a style=""white-space:pre-wrap;""> while a >= 12:
   a /= 3
   a *= 2</a><a style=""""></a></div></div>","8","8","1","44","while a >= 12:
   a /= 3
   a *= 2","8","3"
"","html-keyboard-response","82","329666","0.0-3.0-10.0-4.0-0.0","397","<div><div style=""""><a style=""white-space:pre-wrap;""> while a >= 12:
   a /= 3
   a *= 2</a><a style=""""></a></div></div>","backspace","","1","","","backspace",""
"","html-keyboard-response","83","333539","0.0-3.0-11.0-0.0-0.0","3369","<div><div style=""""><a style=""white-space:pre-wrap;""> for i in [1, 2, 3]:
   a *= 2
   a -= 9</a><a style=""""></a></div></div>","16","16","1","45","for i in [1, 2, 3]:
   a *= 2
   a -= 9","16","0"
"","html-keyboard-response","84","338714","0.0-3.0-11.0-1.0-0.0","4665","<div><div style=""""><a style=""white-space:pre-wrap;""> for i in [1, 2, 3]:
   a *= 2
   a -= 9</a><a style=""""></a></div></div>","7","7","1","45","for i in [1, 2, 3]:
   a *= 2
   a -= 9","7","1"
"","html-keyboard-response","85","341138","0.0-3.0-11.0-2.0-0.0","1919","<div><div style=""""><a style=""white-space:pre-wrap;""> for i in [1, 2, 3]:
   a *= 2
   a -= 9</a><a style=""""></a></div></div>","14","14","1","45","for i in [1, 2, 3]:
   a *= 2
   a -= 9","14","2"
"","html-keyboard-response","86","342674","0.0-3.0-11.0-3.0-0.0","1028","<div><div style=""""><a style=""white-space:pre-wrap;""> for i in [1, 2, 3]:
   a *= 2
   a -= 9</a><a style=""""></a></div></div>","5","5","1","45","for i in [1, 2, 3]:
   a *= 2
   a -= 9","5","3"
"","html-keyboard-response","87","345338","0.0-3.0-11.0-4.0-0.0","2160","<div><div style=""""><a style=""white-space:pre-wrap;""> for i in [1, 2, 3]:
   a *= 2
   a -= 9</a><a style=""""></a></div></div>","10","10","1","45","for i in [1, 2, 3]:
   a *= 2
   a -= 9","10","4"
"","html-keyboard-response","88","347002","0.0-3.0-11.0-5.0-0.0","1153","<div><div style=""""><a style=""white-space:pre-wrap;""> for i in [1, 2, 3]:
   a *= 2
   a -= 9</a><a style=""""></a></div></div>","1","1","1","45","for i in [1, 2, 3]:
   a *= 2
   a -= 9","1","5"
"","html-keyboard-response","89","348170","0.0-3.0-11.0-6.0-0.0","651","<div><div style=""""><a style=""white-space:pre-wrap;""> for i in [1, 2, 3]:
   a *= 2
   a -= 9</a><a style=""""></a></div></div>","backspace","","1","","","backspace",""
"","html-keyboard-response","90","426340","0.0-4.0-0.0-0.0","77650","<p style=""position:absolute; top:30%; font-size:25px; color:green;"" >Take a short break now</p>"," ","","","","","",""
"","html-keyboard-response","91","427338","0.0-4.0-1.0","997","<p style=""font-size: 25px;"">Please press space to start the next program<br>>>>>>></p>"," ","","","","","",""
"","html-keyboard-response","92","429170","0.0-4.0-2.0","1830","<div><div style="" font-size:25px; color:green;""><a style=""white-space:pre-wrap;""> a = 9</a><a style=""""></a></div></div>","","null","","91","a = 9","",""
"","html-keyboard-response","93","433506","0.0-4.0-4.0-0.0-0.0","3823","<div><div style=""""><a style=""white-space:pre-wrap;""> for i in [1, 2]:
   a /= 3</a><a style=""""></a></div></div>","3","3","1","92","for i in [1, 2]:
   a /= 3","3","0"
"","html-keyboard-response","94","434586","0.0-4.0-4.0-1.0-0.0","573","<div><div style=""""><a style=""white-space:pre-wrap;""> for i in [1, 2]:
   a /= 3</a><a style=""""></a></div></div>","1","1","1","92","for i in [1, 2]:
   a /= 3","1","1"
"","html-keyboard-response","95","435322","0.0-4.0-4.0-2.0-0.0","228","<div><div style=""""><a style=""white-space:pre-wrap;""> for i in [1, 2]:
   a /= 3</a><a style=""""></a></div></div>","backspace","","1","","","backspace",""
"","html-keyboard-response","96","438194","0.0-4.0-5.0-0.0-0.0","2361","<div><div style=""""><a style=""white-space:pre-wrap;""> while a <= 16:
   a += 6</a><a style=""""></a></div></div>","7","7","1","93","while a <= 16:
   a += 6","7","0"
"","html-keyboard-response","97","442466","0.0-4.0-5.0-1.0-0.0","3752","<div><div style=""""><a style=""white-space:pre-wrap;""> while a <= 16:
   a += 6</a><a style=""""></a></div></div>","13","13","1","93","while a <= 16:
   a += 6","13","1"
"","html-keyboard-response","98","444946","0.0-4.0-5.0-2.0-0.0","1972","<div><div style=""""><a style=""white-space:pre-wrap;""> while a <= 16:
   a += 6</a><a style=""""></a></div></div>","19","19","1","93","while a <= 16:
   a += 6","19","2"
"","html-keyboard-response","99","445634","0.0-4.0-5.0-3.0-0.0","180","<div><div style=""""><a style=""white-space:pre-wrap;""> while a <= 16:
   a += 6</a><a style=""""></a></div></div>","backspace","","1","","","backspace",""
"","html-keyboard-response","100","450859","0.0-4.0-6.0-0.0-0.0","4714","<div><div style=""""><a style=""white-space:pre-wrap;""> while a >= 10:
   a += 1
   a -= 8</a><a style=""""></a></div></div>","20","20","1","94","while a >= 10:
   a += 1
   a -= 8","20","0"
"","html-keyboard-response","101","454058","0.0-4.0-6.0-1.0-0.0","2684","<div><div style=""""><a style=""white-space:pre-wrap;""> while a >= 10:
   a += 1
   a -= 8</a><a style=""""></a></div></div>","12","12","1","94","while a >= 10:
   a += 1
   a -= 8","12","1"
"","html-keyboard-response","102","457634","0.0-4.0-6.0-2.0-0.0","3060","<div><div style=""""><a style=""white-space:pre-wrap;""> while a >= 10:
   a += 1
   a -= 8</a><a style=""""></a></div></div>","13","13","1","94","while a >= 10:
   a += 1
   a -= 8","13","2"
"","html-keyboard-response","103","466331","0.0-4.0-6.0-3.0-0.0","8177","<div><div style=""""><a style=""white-space:pre-wrap;""> while a >= 10:
   a += 1
   a -= 8</a><a style=""""></a></div></div>","5","5","1","94","while a >= 10:
   a += 1
   a -= 8","5","3"
"","html-keyboard-response","104","467763","0.0-4.0-6.0-4.0-0.0","918","<div><div style=""""><a style=""white-space:pre-wrap;""> while a >= 10:
   a += 1
   a -= 8</a><a style=""""></a></div></div>","backspace","","1","","","backspace",""
"","html-keyboard-response","105","471610","0.0-4.0-7.0-0.0-0.0","3336","<div><div style=""""><a style=""white-space:pre-wrap;""> for i in [1, 2]:
   a *= 3
   a -= 9</a><a style=""""></a></div></div>","15","15","1","95","for i in [1, 2]:
   a *= 3
   a -= 9","15","0"
"","html-keyboard-response","106","473554","0.0-4.0-7.0-1.0-0.0","1440","<div><div style=""""><a style=""white-space:pre-wrap;""> for i in [1, 2]:
   a *= 3
   a -= 9</a><a style=""""></a></div></div>","6","6","1","95","for i in [1, 2]:
   a *= 3
   a -= 9","6","1"
"","html-keyboard-response","107","477411","0.0-4.0-7.0-2.0-0.0","3337","<div><div style=""""><a style=""white-space:pre-wrap;""> for i in [1, 2]:
   a *= 3
   a -= 9</a><a style=""""></a></div></div>","18","18","1","95","for i in [1, 2]:
   a *= 3
   a -= 9","18","2"
"","html-keyboard-response","108","478978","0.0-4.0-7.0-3.0-0.0","1054","<div><div style=""""><a style=""white-space:pre-wrap;""> for i in [1, 2]:
   a *= 3
   a -= 9</a><a style=""""></a></div></div>","9","9","1","95","for i in [1, 2]:
   a *= 3
   a -= 9","9","3"
"","html-keyboard-response","109","479898","0.0-4.0-7.0-4.0-0.0","404","<div><div style=""""><a style=""white-space:pre-wrap;""> for i in [1, 2]:
   a *= 3
   a -= 9</a><a style=""""></a></div></div>","backspace","","1","","","backspace",""
"","html-keyboard-response","110","484755","0.0-4.0-8.0-0.0-0.0","4340","<div><div style=""""><a style=""white-space:pre-wrap;""> for i in [1, 2, 3]:
   a = average(a, 1)</a><a style=""""></a></div></div>","5","5","1","96","for i in [1, 2, 3]:
   a = average(a, 1)","5","0"
"","html-keyboard-response","111","487923","0.0-4.0-8.0-1.0-0.0","2658","<div><div style=""""><a style=""white-space:pre-wrap;""> for i in [1, 2, 3]:
   a = average(a, 1)</a><a style=""""></a></div></div>","3","3","1","96","for i in [1, 2, 3]:
   a = average(a, 1)","3","1"
"","html-keyboard-response","112","490306","0.0-4.0-8.0-2.0-0.0","1872","<div><div style=""""><a style=""white-space:pre-wrap;""> for i in [1, 2, 3]:
   a = average(a, 1)</a><a style=""""></a></div></div>","2","2","1","96","for i in [1, 2, 3]:
   a = average(a, 1)","2","2"
"","html-keyboard-response","113","491354","0.0-4.0-8.0-3.0-0.0","530","<div><div style=""""><a style=""white-space:pre-wrap;""> for i in [1, 2, 3]:
   a = average(a, 1)</a><a style=""""></a></div></div>","backspace","","1","","","backspace",""
"","html-keyboard-response","114","495914","0.0-4.0-9.0-0.0-0.0","4050","<div><div style=""""><a style=""white-space:pre-wrap;""> for i in [1, 2]:
   a -= 1
   a *= 5</a><a style=""""></a></div></div>","1","1","1","97","for i in [1, 2]:
   a -= 1
   a *= 5","1","0"
"","html-keyboard-response","115","497234","0.0-4.0-9.0-1.0-0.0","801","<div><div style=""""><a style=""white-space:pre-wrap;""> for i in [1, 2]:
   a -= 1
   a *= 5</a><a style=""""></a></div></div>","5","5","1","97","for i in [1, 2]:
   a -= 1
   a *= 5","5","1"
"","html-keyboard-response","116","499451","0.0-4.0-9.0-2.0-0.0","1696","<div><div style=""""><a style=""white-space:pre-wrap;""> for i in [1, 2]:
   a -= 1
   a *= 5</a><a style=""""></a></div></div>","4","4","1","97","for i in [1, 2]:
   a -= 1
   a *= 5","4","2"
"","html-keyboard-response","117","501450","0.0-4.0-9.0-3.0-0.0","1486","<div><div style=""""><a style=""white-space:pre-wrap;""> for i in [1, 2]:
   a -= 1
   a *= 5</a><a style=""""></a></div></div>","20","20","1","97","for i in [1, 2]:
   a -= 1
   a *= 5","20","3"
"","html-keyboard-response","118","502410","0.0-4.0-9.0-4.0-0.0","446","<div><div style=""""><a style=""white-space:pre-wrap;""> for i in [1, 2]:
   a -= 1
   a *= 5</a><a style=""""></a></div></div>","backspace","","1","","","backspace",""
"","html-keyboard-response","119","508810","0.0-4.0-10.0-0.0-0.0","5884","<div><div style=""""><a style=""white-space:pre-wrap;""> while a >= 12:
   a -= 3</a><a style=""""></a></div></div>","17","17","1","98","while a >= 12:
   a -= 3","17","0"
"","html-keyboard-response","120","512387","0.0-4.0-10.0-1.0-0.0","3072","<div><div style=""""><a style=""white-space:pre-wrap;""> while a >= 12:
   a -= 3</a><a style=""""></a></div></div>","14","14","1","98","while a >= 12:
   a -= 3","14","1"
"","html-keyboard-response","121","515946","0.0-4.0-10.0-2.0-0.0","3052","<div><div style=""""><a style=""white-space:pre-wrap;""> while a >= 12:
   a -= 3</a><a style=""""></a></div></div>","11","11","1","98","while a >= 12:
   a -= 3","11","2"
"","html-keyboard-response","122","517138","0.0-4.0-10.0-3.0-0.0","684","<div><div style=""""><a style=""white-space:pre-wrap;""> while a >= 12:
   a -= 3</a><a style=""""></a></div></div>","backspace","","1","","","backspace",""
"","html-keyboard-response","123","523107","0.0-4.0-11.0-0.0-0.0","5465","<div><div style=""""><a style=""white-space:pre-wrap;""> while a >= 5:
   a -= 5</a><a style=""""></a></div></div>","6","6","1","99","while a >= 5:
   a -= 5","6","0"
"","html-keyboard-response","124","525330","0.0-4.0-11.0-1.0-0.0","1717","<div><div style=""""><a style=""white-space:pre-wrap;""> while a >= 5:
   a -= 5</a><a style=""""></a></div></div>","1","1","1","99","while a >= 5:
   a -= 5","1","1"
"","html-keyboard-response","125","526146","0.0-4.0-11.0-2.0-0.0","313","<div><div style=""""><a style=""white-space:pre-wrap;""> while a >= 5:
   a -= 5</a><a style=""""></a></div></div>","backspace","","1","","","backspace",""
"","html-keyboard-response","126","528002","0.0-5.0-1.0","1347","<p style=""font-size: 25px;"">Please press space to start the next program<br>>>>>>></p>"," ","","","","","",""
"","html-keyboard-response","127","529642","0.0-5.0-2.0","1638","<div><div style="" font-size:25px; color:green;""><a style=""white-space:pre-wrap;""> a = 18</a><a style=""""></a></div></div>","","null","","19","a = 18","",""
"","html-keyboard-response","128","532898","0.0-5.0-4.0-0.0-0.0","2744","<div><div style=""""><a style=""white-space:pre-wrap;""> for i in [1, 2]:
   a /= 3
   a *= 2</a><a style=""""></a></div></div>","6","6","1","20","for i in [1, 2]:
   a /= 3
   a *= 2","6","0"
"","html-keyboard-response","129","534443","0.0-5.0-4.0-1.0-0.0","1029","<div><div style=""""><a style=""white-space:pre-wrap;""> for i in [1, 2]:
   a /= 3
   a *= 2</a><a style=""""></a></div></div>","12","12","1","20","for i in [1, 2]:
   a /= 3
   a *= 2","12","1"
"","html-keyboard-response","130","538146","0.0-5.0-4.0-2.0-0.0","3191","<div><div style=""""><a style=""white-space:pre-wrap;""> for i in [1, 2]:
   a /= 3
   a *= 2</a><a style=""""></a></div></div>","4","4","1","20","for i in [1, 2]:
   a /= 3
   a *= 2","4","2"
"","html-keyboard-response","131","540754","0.0-5.0-4.0-3.0-0.0","2090","<div><div style=""""><a style=""white-space:pre-wrap;""> for i in [1, 2]:
   a /= 3
   a *= 2</a><a style=""""></a></div></div>","8","8","1","20","for i in [1, 2]:
   a /= 3
   a *= 2","8","3"
"","html-keyboard-response","132","541418","0.0-5.0-4.0-4.0-0.0","154","<div><div style=""""><a style=""white-space:pre-wrap;""> for i in [1, 2]:
   a /= 3
   a *= 2</a><a style=""""></a></div></div>","backspace","","1","","","backspace",""
"","html-keyboard-response","133","546291","0.0-5.0-5.0-0.0-0.0","4356","<div><div style=""""><a style=""white-space:pre-wrap;""> for i in [1, 2, 3]:
   a /= 2</a><a style=""""></a></div></div>","4","4","1","21","for i in [1, 2, 3]:
   a /= 2","4","0"
"","html-keyboard-response","134","550594","0.0-5.0-5.0-1.0-0.0","3801","<div><div style=""""><a style=""white-space:pre-wrap;""> for i in [1, 2, 3]:
   a /= 2</a><a style=""""></a></div></div>","2","2","1","21","for i in [1, 2, 3]:
   a /= 2","2","1"
"","html-keyboard-response","135","551666","0.0-5.0-5.0-2.0-0.0","552","<div><div style=""""><a style=""white-space:pre-wrap;""> for i in [1, 2, 3]:
   a /= 2</a><a style=""""></a></div></div>","1","1","1","21","for i in [1, 2, 3]:
   a /= 2","1","2"
"","html-keyboard-response","136","552538","0.0-5.0-5.0-3.0-0.0","364","<div><div style=""""><a style=""white-space:pre-wrap;""> for i in [1, 2, 3]:
   a /= 2</a><a style=""""></a></div></div>","backspace","","1","","","backspace",""
"","html-keyboard-response","137","556778","0.0-5.0-6.0-0.0-0.0","3734","<div><div style=""""><a style=""white-space:pre-wrap;""> while a <= 7:
   a += 2</a><a style=""""></a></div></div>","3","3","1","22","while a <= 7:
   a += 2","3","0"
"","html-keyboard-response","138","558826","0.0-5.0-6.0-1.0-0.0","1527","<div><div style=""""><a style=""white-space:pre-wrap;""> while a <= 7:
   a += 2</a><a style=""""></a></div></div>","5","5","1","22","while a <= 7:
   a += 2","5","1"
"","html-keyboard-response","139","560546","0.0-5.0-6.0-2.0-0.0","1212","<div><div style=""""><a style=""white-space:pre-wrap;""> while a <= 7:
   a += 2</a><a style=""""></a></div></div>","7","7","1","22","while a <= 7:
   a += 2","7","2"
"","html-keyboard-response","140","561714","0.0-5.0-6.0-3.0-0.0","650","<div><div style=""""><a style=""white-space:pre-wrap;""> while a <= 7:
   a += 2</a><a style=""""></a></div></div>","9","9","1","22","while a <= 7:
   a += 2","9","3"
"","html-keyboard-response","141","562610","0.0-5.0-6.0-4.0-0.0","376","<div><div style=""""><a style=""white-space:pre-wrap;""> while a <= 7:
   a += 2</a><a style=""""></a></div></div>","backspace","","1","","","backspace",""
"","html-keyboard-response","142","571723","0.0-5.0-7.0-0.0-0.0","8608","<div><div style=""""><a style=""white-space:pre-wrap;""> for i in [1, 2]:
   a += 9
   a /= 3</a><a style=""""></a></div></div>","18","18","1","23","for i in [1, 2]:
   a += 9
   a /= 3","18","0"
"","html-keyboard-response","143","574115","0.0-5.0-7.0-1.0-0.0","1881","<div><div style=""""><a style=""white-space:pre-wrap;""> for i in [1, 2]:
   a += 9
   a /= 3</a><a style=""""></a></div></div>","6","6","1","23","for i in [1, 2]:
   a += 9
   a /= 3","6","1"
"","html-keyboard-response","144","576546","0.0-5.0-7.0-2.0-0.0","1912","<div><div style=""""><a style=""white-space:pre-wrap;""> for i in [1, 2]:
   a += 9
   a /= 3</a><a style=""""></a></div></div>","15","15","1","23","for i in [1, 2]:
   a += 9
   a /= 3","15","2"
"","html-keyboard-response","145","578314","0.0-5.0-7.0-3.0-0.0","1261","<div><div style=""""><a style=""white-space:pre-wrap;""> for i in [1, 2]:
   a += 9
   a /= 3</a><a style=""""></a></div></div>","5","5","1","23","for i in [1, 2]:
   a += 9
   a /= 3","5","3"
"","html-keyboard-response","146","579186","0.0-5.0-7.0-4.0-0.0","362","<div><div style=""""><a style=""white-space:pre-wrap;""> for i in [1, 2]:
   a += 9
   a /= 3</a><a style=""""></a></div></div>","backspace","","1","","","backspace",""
"","html-keyboard-response","147","584931","0.0-5.0-8.0-0.0-0.0","5236","<div><div style=""""><a style=""white-space:pre-wrap;""> while a <= 11:
   a = round_down(a*1.5)</a><a style=""""></a></div></div>","7","7","1","24","while a <= 11:
   a = round_down(a*1.5)","7","0"
"","html-keyboard-response","148","596795","0.0-5.0-8.0-1.0-0.0","11351","<div><div style=""""><a style=""white-space:pre-wrap;""> while a <= 11:
   a = round_down(a*1.5)</a><a style=""""></a></div></div>","10","10","1","24","while a <= 11:
   a = round_down(a*1.5)","10","1"
"","html-keyboard-response","149","600386","0.0-5.0-8.0-2.0-0.0","3073","<div><div style=""""><a style=""white-space:pre-wrap;""> while a <= 11:
   a = round_down(a*1.5)</a><a style=""""></a></div></div>","15","15","1","24","while a <= 11:
   a = round_down(a*1.5)","15","2"
"","html-keyboard-response","150","601138","0.0-5.0-8.0-3.0-0.0","244","<div><div style=""""><a style=""white-space:pre-wrap;""> while a <= 11:
   a = round_down(a*1.5)</a><a style=""""></a></div></div>","backspace","","1","","","backspace",""
"","html-keyboard-response","151","605882","0.0-5.0-9.0-0.0-0.0","4239","<div><div style=""""><a style=""white-space:pre-wrap;""> while a >= 8:
   a = average(a,3)</a><a style=""""></a></div></div>","9","9","1","25","while a >= 8:
   a = average(a,3)","9","0"
"","html-keyboard-response","152","609923","0.0-5.0-9.0-1.0-0.0","3529","<div><div style=""""><a style=""white-space:pre-wrap;""> while a >= 8:
   a = average(a,3)</a><a style=""""></a></div></div>","6","6","1","25","while a >= 8:
   a = average(a,3)","6","1"
"","html-keyboard-response","153","618402","0.0-5.0-9.0-2.0-0.0","7977","<div><div style=""""><a style=""white-space:pre-wrap;""> while a >= 8:
   a = average(a,3)</a><a style=""""></a></div></div>","4","","0","","","backspace",""
"","html-keyboard-response","154","622425","0.0-5.0-9.0-2.0-1.0-0.0","null","<div><p style=""font-size:25px; color:green;"">end of loop<br>>>>>>></p>
						<div>Hit the ""end loop"" key to continue</div></div>","null","","","","","",""
"","html-keyboard-response","155","622562","0.0-5.0-9.0-2.1-0.1","134","<div><div style=""""><a style=""white-space:pre-wrap;""> while a >= 8:
   a = average(a,3)</a><a style=""""></a></div></div>","backspace","","1","","","backspace",""
"","html-keyboard-response","156","631282","0.0-5.0-10.0-0.0-0.0","8206","<div><div style=""""><a style=""white-space:pre-wrap;""> for i in [1, 2, 3]:
   a *= 2
   a -= 5</a><a style=""""></a></div></div>","12","12","1","26","for i in [1, 2, 3]:
   a *= 2
   a -= 5","12","0"
"","html-keyboard-response","157","634283","0.0-5.0-10.0-1.0-0.0","2497","<div><div style=""""><a style=""white-space:pre-wrap;""> for i in [1, 2, 3]:
   a *= 2
   a -= 5</a><a style=""""></a></div></div>","7","7","1","26","for i in [1, 2, 3]:
   a *= 2
   a -= 5","7","1"
"","html-keyboard-response","158","637290","0.0-5.0-10.0-2.0-0.0","2505","<div><div style=""""><a style=""white-space:pre-wrap;""> for i in [1, 2, 3]:
   a *= 2
   a -= 5</a><a style=""""></a></div></div>","14","14","1","26","for i in [1, 2, 3]:
   a *= 2
   a -= 5","14","2"
"","html-keyboard-response","159","639954","0.0-5.0-10.0-3.0-0.0","2148","<div><div style=""""><a style=""white-space:pre-wrap;""> for i in [1, 2, 3]:
   a *= 2
   a -= 5</a><a style=""""></a></div></div>","9","9","1","26","for i in [1, 2, 3]:
   a *= 2
   a -= 5","9","3"
"","html-keyboard-response","160","642426","0.0-5.0-10.0-4.0-0.0","1961","<div><div style=""""><a style=""white-space:pre-wrap;""> for i in [1, 2, 3]:
   a *= 2
   a -= 5</a><a style=""""></a></div></div>","18","18","1","26","for i in [1, 2, 3]:
   a *= 2
   a -= 5","18","4"
"","html-keyboard-response","161","643882","0.0-5.0-10.0-5.0-0.0","937","<div><div style=""""><a style=""white-space:pre-wrap;""> for i in [1, 2, 3]:
   a *= 2
   a -= 5</a><a style=""""></a></div></div>","13","13","1","26","for i in [1, 2, 3]:
   a *= 2
   a -= 5","13","5"
"","html-keyboard-response","162","645323","0.0-5.0-10.0-6.0-0.0","927","<div><div style=""""><a style=""white-space:pre-wrap;""> for i in [1, 2, 3]:
   a *= 2
   a -= 5</a><a style=""""></a></div></div>","backspace","","1","","","backspace",""
"","html-keyboard-response","163","652362","0.0-5.0-11.0-0.0-0.0","6536","<div><div style=""""><a style=""white-space:pre-wrap;""> for i in [1, 2, 3]:
   a += 4
   a -= 7</a><a style=""""></a></div></div>","17","17","1","27","for i in [1, 2, 3]:
   a += 4
   a -= 7","17","0"
"","html-keyboard-response","164","654114","0.0-5.0-11.0-1.0-0.0","1239","<div><div style=""""><a style=""white-space:pre-wrap;""> for i in [1, 2, 3]:
   a += 4
   a -= 7</a><a style=""""></a></div></div>","10","10","1","27","for i in [1, 2, 3]:
   a += 4
   a -= 7","10","1"
"","html-keyboard-response","165","656739","0.0-5.0-11.0-2.0-0.0","2113","<div><div style=""""><a style=""white-space:pre-wrap;""> for i in [1, 2, 3]:
   a += 4
   a -= 7</a><a style=""""></a></div></div>","14","14","1","27","for i in [1, 2, 3]:
   a += 4
   a -= 7","14","2"
"","html-keyboard-response","166","658338","0.0-5.0-11.0-3.0-0.0","1087","<div><div style=""""><a style=""white-space:pre-wrap;""> for i in [1, 2, 3]:
   a += 4
   a -= 7</a><a style=""""></a></div></div>","7","7","1","27","for i in [1, 2, 3]:
   a += 4
   a -= 7","7","3"
"","html-keyboard-response","167","661074","0.0-5.0-11.0-4.0-0.0","2233","<div><div style=""""><a style=""white-space:pre-wrap;""> for i in [1, 2, 3]:
   a += 4
   a -= 7</a><a style=""""></a></div></div>","11","11","1","27","for i in [1, 2, 3]:
   a += 4
   a -= 7","11","4"
"","html-keyboard-response","168","665546","0.0-5.0-11.0-5.0-0.0","3960","<div><div style=""""><a style=""white-space:pre-wrap;""> for i in [1, 2, 3]:
   a += 4
   a -= 7</a><a style=""""></a></div></div>","4","4","1","27","for i in [1, 2, 3]:
   a += 4
   a -= 7","4","5"
"","html-keyboard-response","169","666410","0.0-5.0-11.0-6.0-0.0","356","<div><div style=""""><a style=""white-space:pre-wrap;""> for i in [1, 2, 3]:
   a += 4
   a -= 7</a><a style=""""></a></div></div>","backspace","","1","","","backspace",""
"","html-keyboard-response","170","671371","0.0-6.0-1.0","4444","<p style=""font-size: 25px;"">Please press space to start the next program<br>>>>>>></p>"," ","","","","","",""
"","html-keyboard-response","171","673298","0.0-6.0-2.0","1926","<div><div style="" font-size:25px; color:green;""><a style=""white-space:pre-wrap;""> a = 16</a><a style=""""></a></div></div>","","null","","82","a = 16","",""
"","html-keyboard-response","172","684380","0.0-6.0-4.0-0.0-0.0","10573","<div><div style=""""><a style=""white-space:pre-wrap;""> for i in [1, 2]:
   a /= 2</a><a style=""""></a></div></div>","8","8","1","83","for i in [1, 2]:
   a /= 2","8","0"
"","html-keyboard-response","173","686499","0.0-6.0-4.0-1.0-0.0","1602","<div><div style=""""><a style=""white-space:pre-wrap;""> for i in [1, 2]:
   a /= 2</a><a style=""""></a></div></div>","4","4","1","83","for i in [1, 2]:
   a /= 2","4","1"
"","html-keyboard-response","174","688019","0.0-6.0-4.0-2.0-0.0","1002","<div><div style=""""><a style=""white-space:pre-wrap;""> for i in [1, 2]:
   a /= 2</a><a style=""""></a></div></div>","backspace","","1","","","backspace",""
"","html-keyboard-response","175","691667","0.0-6.0-5.0-0.0-0.0","3139","<div><div style=""""><a style=""white-space:pre-wrap;""> for i in [1, 2, 3]:
   a = round_up(a*1.5)</a><a style=""""></a></div></div>","6","6","1","84","for i in [1, 2, 3]:
   a = round_up(a*1.5)","6","0"
"","html-keyboard-response","176","694132","0.0-6.0-5.0-1.0-0.0","1954","<div><div style=""""><a style=""white-space:pre-wrap;""> for i in [1, 2, 3]:
   a = round_up(a*1.5)</a><a style=""""></a></div></div>","9","9","1","84","for i in [1, 2, 3]:
   a = round_up(a*1.5)","9","1"
"","html-keyboard-response","177","700020","0.0-6.0-5.0-2.0-0.0","5372","<div><div style=""""><a style=""white-space:pre-wrap;""> for i in [1, 2, 3]:
   a = round_up(a*1.5)</a><a style=""""></a></div></div>","15","14","0","84","for i in [1, 2, 3]:
   a = round_up(a*1.5)","14","2"
"","html-keyboard-response","179","704547","0.0-6.0-5.0-3.0-0.0","489","<div><div style=""""><a style=""white-space:pre-wrap;""> for i in [1, 2, 3]:
   a = round_up(a*1.5)</a><a style=""""></a></div></div>","backspace","","1","","","backspace",""
"","html-keyboard-response","180","708803","0.0-6.0-6.0-0.0-0.0","3746","<div><div style=""""><a style=""white-space:pre-wrap;""> while a >= 13:
   a += 5
   a -= 6</a><a style=""""></a></div></div>","19","19","1","85","while a >= 13:
   a += 5
   a -= 6","19","0"
"","html-keyboard-response","181","710460","0.0-6.0-6.0-1.0-0.0","1143","<div><div style=""""><a style=""white-space:pre-wrap;""> while a >= 13:
   a += 5
   a -= 6</a><a style=""""></a></div></div>","13","13","1","85","while a >= 13:
   a += 5
   a -= 6","13","1"
"","html-keyboard-response","182","714019","0.0-6.0-6.0-2.0-0.0","3052","<div><div style=""""><a style=""white-space:pre-wrap;""> while a >= 13:
   a += 5
   a -= 6</a><a style=""""></a></div></div>","18","18","1","85","while a >= 13:
   a += 5
   a -= 6","18","2"
"","html-keyboard-response","183","715939","0.0-6.0-6.0-3.0-0.0","1412","<div><div style=""""><a style=""white-space:pre-wrap;""> while a >= 13:
   a += 5
   a -= 6</a><a style=""""></a></div></div>","12","12","1","85","while a >= 13:
   a += 5
   a -= 6","12","3"
"","html-keyboard-response","184","716739","0.0-6.0-6.0-4.0-0.0","292","<div><div style=""""><a style=""white-space:pre-wrap;""> while a >= 13:
   a += 5
   a -= 6</a><a style=""""></a></div></div>","backspace","","1","","","backspace",""
"","html-keyboard-response","185","723188","0.0-6.0-7.0-0.0-0.0","5940","<div><div style=""""><a style=""white-space:pre-wrap;""> while a >= 6:
   a = average(a,4)</a><a style=""""></a></div></div>","8","8","1","86","while a >= 6:
   a = average(a,4)","8","0"
"","html-keyboard-response","186","728036","0.0-6.0-7.0-1.0-0.0","4339","<div><div style=""""><a style=""white-space:pre-wrap;""> while a >= 6:
   a = average(a,4)</a><a style=""""></a></div></div>","6","6","1","86","while a >= 6:
   a = average(a,4)","6","1"
"","html-keyboard-response","187","730419","0.0-6.0-7.0-2.0-0.0","1862","<div><div style=""""><a style=""white-space:pre-wrap;""> while a >= 6:
   a = average(a,4)</a><a style=""""></a></div></div>","5","5","1","86","while a >= 6:
   a = average(a,4)","5","2"
"","html-keyboard-response","188","731131","0.0-6.0-7.0-3.0-0.0","194","<div><div style=""""><a style=""white-space:pre-wrap;""> while a >= 6:
   a = average(a,4)</a><a style=""""></a></div></div>","backspace","","1","","","backspace",""
"","html-keyboard-response","189","735460","0.0-6.0-8.0-0.0-0.0","3822","<div><div style=""""><a style=""white-space:pre-wrap;""> for i in [1, 2]:
   a *= 3
   a -= 11</a><a style=""""></a></div></div>","18","15","0","87","for i in [1, 2]:
   a *= 3
   a -= 11","15","0"
"","html-keyboard-response","191","740299","0.0-6.0-8.0-1.0-0.0","801","<div><div style=""""><a style=""white-space:pre-wrap;""> for i in [1, 2]:
   a *= 3
   a -= 11</a><a style=""""></a></div></div>","4","4","1","87","for i in [1, 2]:
   a *= 3
   a -= 11","4","1"
"","html-keyboard-response","192","742771","0.0-6.0-8.0-2.0-0.0","1954","<div><div style=""""><a style=""white-space:pre-wrap;""> for i in [1, 2]:
   a *= 3
   a -= 11</a><a style=""""></a></div></div>","12","12","1","87","for i in [1, 2]:
   a *= 3
   a -= 11","12","2"
"","html-keyboard-response","193","743803","0.0-6.0-8.0-3.0-0.0","526","<div><div style=""""><a style=""white-space:pre-wrap;""> for i in [1, 2]:
   a *= 3
   a -= 11</a><a style=""""></a></div></div>","1","1","1","87","for i in [1, 2]:
   a *= 3
   a -= 11","1","3"
"","html-keyboard-response","194","746802","0.0-6.0-8.0-4.0-0.0","2478","<div><div style=""""><a style=""white-space:pre-wrap;""> for i in [1, 2]:
   a *= 3
   a -= 11</a><a style=""""></a></div></div>","backspace","","1","","","backspace",""
"","html-keyboard-response","195","750874","0.0-6.0-9.0-0.0-0.0","3550","<div><div style=""""><a style=""white-space:pre-wrap;""> while a <= 7:
   a *= 6
   a /= 2</a><a style=""""></a></div></div>","6","6","1","88","while a <= 7:
   a *= 6
   a /= 2","6","0"
"","html-keyboard-response","196","752738","0.0-6.0-9.0-1.0-0.0","1354","<div><div style=""""><a style=""white-space:pre-wrap;""> while a <= 7:
   a *= 6
   a /= 2</a><a style=""""></a></div></div>","3","3","1","88","while a <= 7:
   a *= 6
   a /= 2","3","1"
"","html-keyboard-response","197","756866","0.0-6.0-9.0-2.0-0.0","3612","<div><div style=""""><a style=""white-space:pre-wrap;""> while a <= 7:
   a *= 6
   a /= 2</a><a style=""""></a></div></div>","18","18","1","88","while a <= 7:
   a *= 6
   a /= 2","18","2"
"","html-keyboard-response","198","759602","0.0-6.0-9.0-3.0-0.0","2228","<div><div style=""""><a style=""white-space:pre-wrap;""> while a <= 7:
   a *= 6
   a /= 2</a><a style=""""></a></div></div>","8","9","0","88","while a <= 7:
   a *= 6
   a /= 2","9","3"
"","html-keyboard-response","200","763778","0.0-6.0-9.0-4.0-0.0","133","<div><div style=""""><a style=""white-space:pre-wrap;""> while a <= 7:
   a *= 6
   a /= 2</a><a style=""""></a></div></div>","backspace","","1","","","backspace",""
"","html-keyboard-response","201","768675","0.0-6.0-10.0-0.0-0.0","4390","<div><div style=""""><a style=""white-space:pre-wrap;""> while a >= 7:
   a -= 2</a><a style=""""></a></div></div>","7","7","1","89","while a >= 7:
   a -= 2","7","0"
"","html-keyboard-response","202","771362","0.0-6.0-10.0-1.0-0.0","2170","<div><div style=""""><a style=""white-space:pre-wrap;""> while a >= 7:
   a -= 2</a><a style=""""></a></div></div>","5","5","1","89","while a >= 7:
   a -= 2","5","1"
"","html-keyboard-response","203","773610","0.0-6.0-10.0-2.0-0.0","1726","<div><div style=""""><a style=""white-space:pre-wrap;""> while a >= 7:
   a -= 2</a><a style=""""></a></div></div>","backspace","","1","","","backspace",""
"","html-keyboard-response","204","779186","0.0-6.0-11.0-0.0-0.0","5072","<div><div style=""""><a style=""white-space:pre-wrap;""> for i in [1, 2]:
   a += 9
   a /= 2</a><a style=""""></a></div></div>","14","14","1","90","for i in [1, 2]:
   a += 9
   a /= 2","14","0"
"","html-keyboard-response","205","781490","0.0-6.0-11.0-1.0-0.0","1786","<div><div style=""""><a style=""white-space:pre-wrap;""> for i in [1, 2]:
   a += 9
   a /= 2</a><a style=""""></a></div></div>","7","7","1","90","for i in [1, 2]:
   a += 9
   a /= 2","7","1"
"","html-keyboard-response","206","785218","0.0-6.0-11.0-2.0-0.0","3214","<div><div style=""""><a style=""white-space:pre-wrap;""> for i in [1, 2]:
   a += 9
   a /= 2</a><a style=""""></a></div></div>","16","16","1","90","for i in [1, 2]:
   a += 9
   a /= 2","16","2"
"","html-keyboard-response","207","787202","0.0-6.0-11.0-3.0-0.0","1478","<div><div style=""""><a style=""white-space:pre-wrap;""> for i in [1, 2]:
   a += 9
   a /= 2</a><a style=""""></a></div></div>","8","8","1","90","for i in [1, 2]:
   a += 9
   a /= 2","8","3"
"","html-keyboard-response","208","788314","0.0-6.0-11.0-4.0-0.0","590","<div><div style=""""><a style=""white-space:pre-wrap;""> for i in [1, 2]:
   a += 9
   a /= 2</a><a style=""""></a></div></div>","backspace","","1","","","backspace",""
"","html-keyboard-response","209","900144","0.0-7.0-0.0-0.0","111320","<p style=""position:absolute; top:30%; font-size:25px; color:green;"" >Take a short break now</p>"," ","","","","","",""
"","html-keyboard-response","210","901169","0.0-7.0-1.0","1023","<p style=""font-size: 25px;"">Please press space to start the next program<br>>>>>>></p>"," ","","","","","",""
"","html-keyboard-response","211","902649","0.0-7.0-2.0","1478","<div><div style="" font-size:25px; color:green;""><a style=""white-space:pre-wrap;""> a = 11</a><a style=""""></a></div></div>","","null","","55","a = 11","",""
"","html-keyboard-response","212","906057","0.0-7.0-4.0-0.0-0.0","2889","<div><div style=""""><a style=""white-space:pre-wrap;""> for i in [1, 2]:
   a += 4
   a /= 3</a><a style=""""></a></div></div>","15","15","1","56","for i in [1, 2]:
   a += 4
   a /= 3","15","0"
"","html-keyboard-response","213","907217","0.0-7.0-4.0-1.0-0.0","639","<div><div style=""""><a style=""white-space:pre-wrap;""> for i in [1, 2]:
   a += 4
   a /= 3</a><a style=""""></a></div></div>","5","5","1","56","for i in [1, 2]:
   a += 4
   a /= 3","5","1"
"","html-keyboard-response","214","910137","0.0-7.0-4.0-2.0-0.0","2409","<div><div style=""""><a style=""white-space:pre-wrap;""> for i in [1, 2]:
   a += 4
   a /= 3</a><a style=""""></a></div></div>","9","9","1","56","for i in [1, 2]:
   a += 4
   a /= 3","9","2"
"","html-keyboard-response","215","910929","0.0-7.0-4.0-3.0-0.0","271","<div><div style=""""><a style=""white-space:pre-wrap;""> for i in [1, 2]:
   a += 4
   a /= 3</a><a style=""""></a></div></div>","3","3","1","56","for i in [1, 2]:
   a += 4
   a /= 3","3","3"
"","html-keyboard-response","216","911697","0.0-7.0-4.0-4.0-0.0","259","<div><div style=""""><a style=""white-space:pre-wrap;""> for i in [1, 2]:
   a += 4
   a /= 3</a><a style=""""></a></div></div>","backspace","","1","","","backspace",""
"","html-keyboard-response","217","921281","0.0-7.0-5.0-0.0-0.0","9073","<div><div style=""""><a style=""white-space:pre-wrap;""> while a <= 11:
   a = round_down(a*2.5)</a><a style=""""></a></div></div>","9","7","0","57","while a <= 11:
   a = round_down(a*2.5)","7","0"
"","html-keyboard-response","219","939473","0.0-7.0-5.0-1.0-0.0","14178","<div><div style=""""><a style=""white-space:pre-wrap;""> while a <= 11:
   a = round_down(a*2.5)</a><a style=""""></a></div></div>","17","17","1","57","while a <= 11:
   a = round_down(a*2.5)","17","1"
"","html-keyboard-response","220","941673","0.0-7.0-5.0-2.0-0.0","1683","<div><div style=""""><a style=""white-space:pre-wrap;""> while a <= 11:
   a = round_down(a*2.5)</a><a style=""""></a></div></div>","backspace","","1","","","backspace",""
"","html-keyboard-response","221","950225","0.0-7.0-6.0-0.0-0.0","8040","<div><div style=""""><a style=""white-space:pre-wrap;""> while a >= 3:
   a = average(a,1)</a><a style=""""></a></div></div>","9","9","1","58","while a >= 3:
   a = average(a,1)","9","0"
"","html-keyboard-response","222","952697","0.0-7.0-6.0-1.0-0.0","1967","<div><div style=""""><a style=""white-space:pre-wrap;""> while a >= 3:
   a = average(a,1)</a><a style=""""></a></div></div>","5","5","1","58","while a >= 3:
   a = average(a,1)","5","1"
"","html-keyboard-response","223","955793","0.0-7.0-6.0-2.0-0.0","2583","<div><div style=""""><a style=""white-space:pre-wrap;""> while a >= 3:
   a = average(a,1)</a><a style=""""></a></div></div>","3","3","1","58","while a >= 3:
   a = average(a,1)","3","2"
"","html-keyboard-response","224","958809","0.0-7.0-6.0-3.0-0.0","2499","<div><div style=""""><a style=""white-space:pre-wrap;""> while a >= 3:
   a = average(a,1)</a><a style=""""></a></div></div>","2","2","1","58","while a >= 3:
   a = average(a,1)","2","3"
"","html-keyboard-response","225","959593","0.0-7.0-6.0-4.0-0.0","263","<div><div style=""""><a style=""white-space:pre-wrap;""> while a >= 3:
   a = average(a,1)</a><a style=""""></a></div></div>","backspace","","1","","","backspace",""
"","html-keyboard-response","226","964483","0.0-7.0-7.0-0.0-0.0","4381","<div><div style=""""><a style=""white-space:pre-wrap;""> while a <= 10:
   a *= 3
   a -= 1</a><a style=""""></a></div></div>","6","6","1","59","while a <= 10:
   a *= 3
   a -= 1","6","0"
"","html-keyboard-response","227","966786","0.0-7.0-7.0-1.0-0.0","1785","<div><div style=""""><a style=""white-space:pre-wrap;""> while a <= 10:
   a *= 3
   a -= 1</a><a style=""""></a></div></div>","5","5","1","59","while a <= 10:
   a *= 3
   a -= 1","5","1"
"","html-keyboard-response","228","970778","0.0-7.0-7.0-2.0-0.0","3487","<div><div style=""""><a style=""white-space:pre-wrap;""> while a <= 10:
   a *= 3
   a -= 1</a><a style=""""></a></div></div>","15","15","1","59","while a <= 10:
   a *= 3
   a -= 1","15","2"
"","html-keyboard-response","229","971842","0.0-7.0-7.0-3.0-0.0","551","<div><div style=""""><a style=""white-space:pre-wrap;""> while a <= 10:
   a *= 3
   a -= 1</a><a style=""""></a></div></div>","14","14","1","59","while a <= 10:
   a *= 3
   a -= 1","14","3"
"","html-keyboard-response","230","972754","0.0-7.0-7.0-4.0-0.0","403","<div><div style=""""><a style=""white-space:pre-wrap;""> while a <= 10:
   a *= 3
   a -= 1</a><a style=""""></a></div></div>","backspace","","1","","","backspace",""
"","html-keyboard-response","231","979874","0.0-7.0-8.0-0.0-0.0","6613","<div><div style=""""><a style=""white-space:pre-wrap;""> for i in [1, 2, 3]:
   a -= 5
   a += 1</a><a style=""""></a></div></div>","11","9","0","60","for i in [1, 2, 3]:
   a -= 5
   a += 1","9","0"
"","html-keyboard-response","233","985274","0.0-7.0-8.0-1.0-0.0","1362","<div><div style=""""><a style=""white-space:pre-wrap;""> for i in [1, 2, 3]:
   a -= 5
   a += 1</a><a style=""""></a></div></div>","10","10","1","60","for i in [1, 2, 3]:
   a -= 5
   a += 1","10","1"
"","html-keyboard-response","234","987250","0.0-7.0-8.0-2.0-0.0","1469","<div><div style=""""><a style=""white-space:pre-wrap;""> for i in [1, 2, 3]:
   a -= 5
   a += 1</a><a style=""""></a></div></div>","5","5","1","60","for i in [1, 2, 3]:
   a -= 5
   a += 1","5","2"
"","html-keyboard-response","235","988786","0.0-7.0-8.0-3.0-0.0","1025","<div><div style=""""><a style=""white-space:pre-wrap;""> for i in [1, 2, 3]:
   a -= 5
   a += 1</a><a style=""""></a></div></div>","6","6","1","60","for i in [1, 2, 3]:
   a -= 5
   a += 1","6","3"
"","html-keyboard-response","236","991931","0.0-7.0-8.0-4.0-0.0","2629","<div><div style=""""><a style=""white-space:pre-wrap;""> for i in [1, 2, 3]:
   a -= 5
   a += 1</a><a style=""""></a></div></div>","1","1","1","60","for i in [1, 2, 3]:
   a -= 5
   a += 1","1","4"
"","html-keyboard-response","237","992802","0.0-7.0-8.0-5.0-0.0","351","<div><div style=""""><a style=""white-space:pre-wrap;""> for i in [1, 2, 3]:
   a -= 5
   a += 1</a><a style=""""></a></div></div>","2","2","1","60","for i in [1, 2, 3]:
   a -= 5
   a += 1","2","5"
"","html-keyboard-response","238","994026","0.0-7.0-8.0-6.0-0.0","715","<div><div style=""""><a style=""white-space:pre-wrap;""> for i in [1, 2, 3]:
   a -= 5
   a += 1</a><a style=""""></a></div></div>","backspace","","1","","","backspace",""
"","html-keyboard-response","239","997674","0.0-7.0-9.0-0.0-0.0","3122","<div><div style=""""><a style=""white-space:pre-wrap;""> for i in [1, 2]:
   a *= 3</a><a style=""""></a></div></div>","6","6","1","61","for i in [1, 2]:
   a *= 3","6","0"
"","html-keyboard-response","240","1001634","0.0-7.0-9.0-1.0-0.0","3443","<div><div style=""""><a style=""white-space:pre-wrap;""> for i in [1, 2]:
   a *= 3</a><a style=""""></a></div></div>","18","18","1","61","for i in [1, 2]:
   a *= 3","18","1"
"","html-keyboard-response","241","1002587","0.0-7.0-9.0-2.0-0.0","425","<div><div style=""""><a style=""white-space:pre-wrap;""> for i in [1, 2]:
   a *= 3</a><a style=""""></a></div></div>","backspace","","1","","","backspace",""
"","html-keyboard-response","242","1005833","0.0-7.0-10.0-0.0-0.0","2742","<div><div style=""""><a style=""white-space:pre-wrap;""> for i in [1, 2]:
   a /= 3
   a *= 2</a><a style=""""></a></div></div>","6","6","1","62","for i in [1, 2]:
   a /= 3
   a *= 2","6","0"
"","html-keyboard-response","243","1008922","0.0-7.0-10.0-1.0-0.0","2571","<div><div style=""""><a style=""white-space:pre-wrap;""> for i in [1, 2]:
   a /= 3
   a *= 2</a><a style=""""></a></div></div>","12","12","1","62","for i in [1, 2]:
   a /= 3
   a *= 2","12","1"
"","html-keyboard-response","244","1011994","0.0-7.0-10.0-2.0-0.0","2563","<div><div style=""""><a style=""white-space:pre-wrap;""> for i in [1, 2]:
   a /= 3
   a *= 2</a><a style=""""></a></div></div>","4","4","1","62","for i in [1, 2]:
   a /= 3
   a *= 2","4","2"
"","html-keyboard-response","245","1012875","0.0-7.0-10.0-3.0-0.0","373","<div><div style=""""><a style=""white-space:pre-wrap;""> for i in [1, 2]:
   a /= 3
   a *= 2</a><a style=""""></a></div></div>","8","8","1","62","for i in [1, 2]:
   a /= 3
   a *= 2","8","3"
"","html-keyboard-response","246","1013698","0.0-7.0-10.0-4.0-0.0","317","<div><div style=""""><a style=""white-space:pre-wrap;""> for i in [1, 2]:
   a /= 3
   a *= 2</a><a style=""""></a></div></div>","backspace","","1","","","backspace",""
"","html-keyboard-response","247","1016994","0.0-7.0-11.0-0.0-0.0","2782","<div><div style=""""><a style=""white-space:pre-wrap;""> while a <= 17:
   a += 4</a><a style=""""></a></div></div>","12","12","1","63","while a <= 17:
   a += 4","12","0"
"","html-keyboard-response","248","1018626","0.0-7.0-11.0-1.0-0.0","1115","<div><div style=""""><a style=""white-space:pre-wrap;""> while a <= 17:
   a += 4</a><a style=""""></a></div></div>","16","16","1","63","while a <= 17:
   a += 4","16","1"
"","html-keyboard-response","249","1020154","0.0-7.0-11.0-2.0-0.0","1023","<div><div style=""""><a style=""white-space:pre-wrap;""> while a <= 17:
   a += 4</a><a style=""""></a></div></div>","20","20","1","63","while a <= 17:
   a += 4","20","2"
"","html-keyboard-response","250","1020994","0.0-7.0-11.0-3.0-0.0","323","<div><div style=""""><a style=""white-space:pre-wrap;""> while a <= 17:
   a += 4</a><a style=""""></a></div></div>","backspace","","1","","","backspace",""
"","html-keyboard-response","251","1022907","0.0-8.0-1.0","1405","<p style=""font-size: 25px;"">Please press space to start the next program<br>>>>>>></p>"," ","","","","","",""
"","html-keyboard-response","252","1024466","0.0-8.0-2.0","1558","<div><div style="" font-size:25px; color:green;""><a style=""white-space:pre-wrap;""> a = 7</a><a style=""""></a></div></div>","","null","","1","a = 7","",""
"","html-keyboard-response","253","1027562","0.0-8.0-4.0-0.0-0.0","2591","<div><div style=""""><a style=""white-space:pre-wrap;""> while a <= 14:
   a *= 2
   a -= 4</a><a style=""""></a></div></div>","14","14","1","2","while a <= 14:
   a *= 2
   a -= 4","14","0"
"","html-keyboard-response","254","1028882","0.0-8.0-4.0-1.0-0.0","801","<div><div style=""""><a style=""white-space:pre-wrap;""> while a <= 14:
   a *= 2
   a -= 4</a><a style=""""></a></div></div>","10","10","1","2","while a <= 14:
   a *= 2
   a -= 4","10","1"
"","html-keyboard-response","255","1031906","0.0-8.0-4.0-2.0-0.0","2505","<div><div style=""""><a style=""white-space:pre-wrap;""> while a <= 14:
   a *= 2
   a -= 4</a><a style=""""></a></div></div>","20","20","1","2","while a <= 14:
   a *= 2
   a -= 4","20","2"
"","html-keyboard-response","256","1033330","0.0-8.0-4.0-3.0-0.0","920","<div><div style=""""><a style=""white-space:pre-wrap;""> while a <= 14:
   a *= 2
   a -= 4</a><a style=""""></a></div></div>","16","16","1","2","while a <= 14:
   a *= 2
   a -= 4","16","3"
"","html-keyboard-response","257","1034058","0.0-8.0-4.0-4.0-0.0","207","<div><div style=""""><a style=""white-space:pre-wrap;""> while a <= 14:
   a *= 2
   a -= 4</a><a style=""""></a></div></div>","backspace","","1","","","backspace",""
"","html-keyboard-response","258","1036690","0.0-8.0-5.0-0.0-0.0","2121","<div><div style=""""><a style=""white-space:pre-wrap;""> while a >= 3:
   a /= 4
   a *= 2</a><a style=""""></a></div></div>","4","4","1","3","while a >= 3:
   a /= 4
   a *= 2","4","0"
"","html-keyboard-response","259","1038330","0.0-8.0-5.0-1.0-0.0","1119","<div><div style=""""><a style=""white-space:pre-wrap;""> while a >= 3:
   a /= 4
   a *= 2</a><a style=""""></a></div></div>","8","8","1","3","while a >= 3:
   a /= 4
   a *= 2","8","1"
"","html-keyboard-response","260","1041546","0.0-8.0-5.0-2.0-0.0","2695","<div><div style=""""><a style=""white-space:pre-wrap;""> while a >= 3:
   a /= 4
   a *= 2</a><a style=""""></a></div></div>","2","2","1","3","while a >= 3:
   a /= 4
   a *= 2","2","2"
"","html-keyboard-response","261","1042834","0.0-8.0-5.0-3.0-0.0","783","<div><div style=""""><a style=""white-space:pre-wrap;""> while a >= 3:
   a /= 4
   a *= 2</a><a style=""""></a></div></div>","4","4","1","3","while a >= 3:
   a /= 4
   a *= 2","4","3"
"","html-keyboard-response","262","1045402","0.0-8.0-5.0-4.0-0.0","2051","<div><div style=""""><a style=""white-space:pre-wrap;""> while a >= 3:
   a /= 4
   a *= 2</a><a style=""""></a></div></div>","1","1","1","3","while a >= 3:
   a /= 4
   a *= 2","1","4"
"","html-keyboard-response","263","1046290","0.0-8.0-5.0-5.0-0.0","369","<div><div style=""""><a style=""white-space:pre-wrap;""> while a >= 3:
   a /= 4
   a *= 2</a><a style=""""></a></div></div>","2","2","1","3","while a >= 3:
   a /= 4
   a *= 2","2","5"
"","html-keyboard-response","264","1047106","0.0-8.0-5.0-6.0-0.0","305","<div><div style=""""><a style=""white-space:pre-wrap;""> while a >= 3:
   a /= 4
   a *= 2</a><a style=""""></a></div></div>","backspace","","1","","","backspace",""
"","html-keyboard-response","265","1053930","0.0-8.0-6.0-0.0-0.0","6319","<div><div style=""""><a style=""white-space:pre-wrap;""> for i in [1, 2]:
   a = round_up(a*2.5)</a><a style=""""></a></div></div>","5","5","1","4","for i in [1, 2]:
   a = round_up(a*2.5)","5","0"
"","html-keyboard-response","266","1063154","0.0-8.0-6.0-1.0-0.0","8714","<div><div style=""""><a style=""white-space:pre-wrap;""> for i in [1, 2]:
   a = round_up(a*2.5)</a><a style=""""></a></div></div>","13","13","1","4","for i in [1, 2]:
   a = round_up(a*2.5)","13","1"
"","html-keyboard-response","267","1064218","0.0-8.0-6.0-2.0-0.0","547","<div><div style=""""><a style=""white-space:pre-wrap;""> for i in [1, 2]:
   a = round_up(a*2.5)</a><a style=""""></a></div></div>","backspace","","1","","","backspace",""
"","html-keyboard-response","268","1069954","0.0-8.0-7.0-0.0-0.0","5233","<div><div style=""""><a style=""white-space:pre-wrap;""> while a >= 7:
   a = average(a,5)</a><a style=""""></a></div></div>","9","9","1","5","while a >= 7:
   a = average(a,5)","9","0"
"","html-keyboard-response","269","1073442","0.0-8.0-7.0-1.0-0.0","2971","<div><div style=""""><a style=""white-space:pre-wrap;""> while a >= 7:
   a = average(a,5)</a><a style=""""></a></div></div>","7","7","1","5","while a >= 7:
   a = average(a,5)","7","1"
"","html-keyboard-response","270","1077394","0.0-8.0-7.0-2.0-0.0","3443","<div><div style=""""><a style=""white-space:pre-wrap;""> while a >= 7:
   a = average(a,5)</a><a style=""""></a></div></div>","6","6","1","5","while a >= 7:
   a = average(a,5)","6","2"
"","html-keyboard-response","271","1078009","0.0-8.0-7.0-3.0-0.0","99","<div><div style=""""><a style=""white-space:pre-wrap;""> while a >= 7:
   a = average(a,5)</a><a style=""""></a></div></div>","backspace","","1","","","backspace",""
"","html-keyboard-response","272","1081138","0.0-8.0-8.0-0.0-0.0","2616","<div><div style=""""><a style=""white-space:pre-wrap;""> for i in [1, 2]:
   a += 2
   a /= 2</a><a style=""""></a></div></div>","8","8","1","6","for i in [1, 2]:
   a += 2
   a /= 2","8","0"
"","html-keyboard-response","273","1084370","0.0-8.0-8.0-1.0-0.0","2719","<div><div style=""""><a style=""white-space:pre-wrap;""> for i in [1, 2]:
   a += 2
   a /= 2</a><a style=""""></a></div></div>","4","4","1","6","for i in [1, 2]:
   a += 2
   a /= 2","4","1"
"","html-keyboard-response","274","1087000","0.0-8.0-8.0-2.0-0.0","2111","<div><div style=""""><a style=""white-space:pre-wrap;""> for i in [1, 2]:
   a += 2
   a /= 2</a><a style=""""></a></div></div>","6","6","1","6","for i in [1, 2]:
   a += 2
   a /= 2","6","2"
"","html-keyboard-response","275","1088248","0.0-8.0-8.0-3.0-0.0","729","<div><div style=""""><a style=""white-space:pre-wrap;""> for i in [1, 2]:
   a += 2
   a /= 2</a><a style=""""></a></div></div>","3","3","1","6","for i in [1, 2]:
   a += 2
   a /= 2","3","3"
"","html-keyboard-response","276","1089112","0.0-8.0-8.0-4.0-0.0","347","<div><div style=""""><a style=""white-space:pre-wrap;""> for i in [1, 2]:
   a += 2
   a /= 2</a><a style=""""></a></div></div>","backspace","","1","","","backspace",""
"","html-keyboard-response","277","1091368","0.0-8.0-9.0-0.0-0.0","1748","<div><div style=""""><a style=""white-space:pre-wrap;""> for i in [1, 2]:
   a *= 2</a><a style=""""></a></div></div>","6","6","1","7","for i in [1, 2]:
   a *= 2","6","0"
"","html-keyboard-response","278","1093232","0.0-8.0-9.0-1.0-0.0","1343","<div><div style=""""><a style=""white-space:pre-wrap;""> for i in [1, 2]:
   a *= 2</a><a style=""""></a></div></div>","12","12","1","7","for i in [1, 2]:
   a *= 2","12","1"
"","html-keyboard-response","279","1094280","0.0-8.0-9.0-2.0-0.0","531","<div><div style=""""><a style=""white-space:pre-wrap;""> for i in [1, 2]:
   a *= 2</a><a style=""""></a></div></div>","backspace","","1","","","backspace",""
"","html-keyboard-response","280","1100704","0.0-8.0-10.0-0.0-0.0","5915","<div><div style=""""><a style=""white-space:pre-wrap;""> while a <= 14:
   a += 6
   a -= 4</a><a style=""""></a></div></div>","18","18","1","8","while a <= 14:
   a += 6
   a -= 4","18","0"
"","html-keyboard-response","281","1103272","0.0-8.0-10.0-1.0-0.0","2063","<div><div style=""""><a style=""white-space:pre-wrap;""> while a <= 14:
   a += 6
   a -= 4</a><a style=""""></a></div></div>","14","14","1","8","while a <= 14:
   a += 6
   a -= 4","14","1"
"","html-keyboard-response","282","1104664","0.0-8.0-10.0-2.0-0.0","875","<div><div style=""""><a style=""white-space:pre-wrap;""> while a <= 14:
   a += 6
   a -= 4</a><a style=""""></a></div></div>","20","20","1","8","while a <= 14:
   a += 6
   a -= 4","20","2"
"","html-keyboard-response","283","1107136","0.0-8.0-10.0-3.0-0.0","1967","<div><div style=""""><a style=""white-space:pre-wrap;""> while a <= 14:
   a += 6
   a -= 4</a><a style=""""></a></div></div>","16","16","1","8","while a <= 14:
   a += 6
   a -= 4","16","3"
"","html-keyboard-response","284","1107984","0.0-8.0-10.0-4.0-0.0","335","<div><div style=""""><a style=""white-space:pre-wrap;""> while a <= 14:
   a += 6
   a -= 4</a><a style=""""></a></div></div>","backspace","","1","","","backspace",""
"","html-keyboard-response","285","1115256","0.0-8.0-11.0-0.0-0.0","6757","<div><div style=""""><a style=""white-space:pre-wrap;""> while a >= 6:
   a -= 3</a><a style=""""></a></div></div>","13","13","1","9","while a >= 6:
   a -= 3","13","0"
"","html-keyboard-response","286","1117624","0.0-8.0-11.0-1.0-0.0","1855","<div><div style=""""><a style=""white-space:pre-wrap;""> while a >= 6:
   a -= 3</a><a style=""""></a></div></div>","10","10","1","9","while a >= 6:
   a -= 3","10","1"
"","html-keyboard-response","287","1119120","0.0-8.0-11.0-2.0-0.0","991","<div><div style=""""><a style=""white-space:pre-wrap;""> while a >= 6:
   a -= 3</a><a style=""""></a></div></div>","7","7","1","9","while a >= 6:
   a -= 3","7","2"
"","html-keyboard-response","288","1120512","0.0-8.0-11.0-3.0-0.0","873","<div><div style=""""><a style=""white-space:pre-wrap;""> while a >= 6:
   a -= 3</a><a style=""""></a></div></div>","4","4","1","9","while a >= 6:
   a -= 3","4","3"
"","html-keyboard-response","289","1121304","0.0-8.0-11.0-4.0-0.0","285","<div><div style=""""><a style=""white-space:pre-wrap;""> while a >= 6:
   a -= 3</a><a style=""""></a></div></div>","backspace","","1","","","backspace",""
"","html-keyboard-response","290","1298660","0.0-9.0-0.0-0.0","176847","<p style=""position:absolute; top:30%; font-size:25px; color:green;"" >Take a short break now</p>"," ","","","","","",""
"","html-keyboard-response","291","1299170","0.0-9.0-1.0","508","<p style=""font-size: 25px;"">Please press space to start the next program<br>>>>>>></p>"," ","","","","","",""
"","html-keyboard-response","292","1300882","0.0-9.0-2.0","1710","<div><div style="" font-size:25px; color:green;""><a style=""white-space:pre-wrap;""> a = 11</a><a style=""""></a></div></div>","","null","","64","a = 11","",""
"","html-keyboard-response","293","1306250","0.0-9.0-4.0-0.0-0.0","4850","<div><div style=""""><a style=""white-space:pre-wrap;""> while a >= 5:
   a += 4
   a /= 3</a><a style=""""></a></div></div>","15","15","1","65","while a >= 5:
   a += 4
   a /= 3","15","0"
"","html-keyboard-response","294","1307354","0.0-9.0-4.0-1.0-0.0","594","<div><div style=""""><a style=""white-space:pre-wrap;""> while a >= 5:
   a += 4
   a /= 3</a><a style=""""></a></div></div>","5","5","1","65","while a >= 5:
   a += 4
   a /= 3","5","1"
"","html-keyboard-response","295","1309851","0.0-9.0-4.0-2.0-0.0","1991","<div><div style=""""><a style=""white-space:pre-wrap;""> while a >= 5:
   a += 4
   a /= 3</a><a style=""""></a></div></div>","9","9","1","65","while a >= 5:
   a += 4
   a /= 3","9","2"
"","html-keyboard-response","296","1310538","0.0-9.0-4.0-3.0-0.0","178","<div><div style=""""><a style=""white-space:pre-wrap;""> while a >= 5:
   a += 4
   a /= 3</a><a style=""""></a></div></div>","3","3","1","65","while a >= 5:
   a += 4
   a /= 3","3","3"
"","html-keyboard-response","297","1311146","0.0-9.0-4.0-4.0-0.0","96","<div><div style=""""><a style=""white-space:pre-wrap;""> while a >= 5:
   a += 4
   a /= 3</a><a style=""""></a></div></div>","backspace","","1","","","backspace",""
"","html-keyboard-response","298","1318890","0.0-9.0-5.0-0.0-0.0","7229","<div><div style=""""><a style=""white-space:pre-wrap;""> while a <= 11:
   a = round_down(a*2.5)</a><a style=""""></a></div></div>","7","7","1","66","while a <= 11:
   a = round_down(a*2.5)","7","0"
"","html-keyboard-response","299","1324739","0.0-9.0-5.0-1.0-0.0","5338","<div><div style=""""><a style=""white-space:pre-wrap;""> while a <= 11:
   a = round_down(a*2.5)</a><a style=""""></a></div></div>","13","17","0","66","while a <= 11:
   a = round_down(a*2.5)","17","1"
"","html-keyboard-response","301","1329226","0.0-9.0-5.0-2.0-0.0","465","<div><div style=""""><a style=""white-space:pre-wrap;""> while a <= 11:
   a = round_down(a*2.5)</a><a style=""""></a></div></div>","backspace","","1","","","backspace",""
"","html-keyboard-response","302","1333050","0.0-9.0-6.0-0.0-0.0","3320","<div><div style=""""><a style=""white-space:pre-wrap;""> for i in [1, 2, 3, 4]:
   a = average(a,1)</a><a style=""""></a></div></div>","9","9","1","67","for i in [1, 2, 3, 4]:
   a = average(a,1)","9","0"
"","html-keyboard-response","303","1335682","0.0-9.0-6.0-1.0-0.0","2122","<div><div style=""""><a style=""white-space:pre-wrap;""> for i in [1, 2, 3, 4]:
   a = average(a,1)</a><a style=""""></a></div></div>","5","5","1","67","for i in [1, 2, 3, 4]:
   a = average(a,1)","5","1"
"","html-keyboard-response","304","1339018","0.0-9.0-6.0-2.0-0.0","2818","<div><div style=""""><a style=""white-space:pre-wrap;""> for i in [1, 2, 3, 4]:
   a = average(a,1)</a><a style=""""></a></div></div>","3","3","1","67","for i in [1, 2, 3, 4]:
   a = average(a,1)","3","2"
"","html-keyboard-response","305","1341410","0.0-9.0-6.0-3.0-0.0","1870","<div><div style=""""><a style=""white-space:pre-wrap;""> for i in [1, 2, 3, 4]:
   a = average(a,1)</a><a style=""""></a></div></div>","2","2","1","67","for i in [1, 2, 3, 4]:
   a = average(a,1)","2","3"
"","html-keyboard-response","306","1342578","0.0-9.0-6.0-4.0-0.0","648","<div><div style=""""><a style=""white-space:pre-wrap;""> for i in [1, 2, 3, 4]:
   a = average(a,1)</a><a style=""""></a></div></div>","backspace","","1","","","backspace",""
"","html-keyboard-response","307","1346763","0.0-9.0-7.0-0.0-0.0","3662","<div><div style=""""><a style=""white-space:pre-wrap;""> while a <= 10:
   a *= 3
   a -= 1</a><a style=""""></a></div></div>","6","6","1","68","while a <= 10:
   a *= 3
   a -= 1","6","0"
"","html-keyboard-response","308","1347986","0.0-9.0-7.0-1.0-0.0","706","<div><div style=""""><a style=""white-space:pre-wrap;""> while a <= 10:
   a *= 3
   a -= 1</a><a style=""""></a></div></div>","5","5","1","68","while a <= 10:
   a *= 3
   a -= 1","5","1"
"","html-keyboard-response","309","1352330","0.0-9.0-7.0-2.0-0.0","3830","<div><div style=""""><a style=""white-space:pre-wrap;""> while a <= 10:
   a *= 3
   a -= 1</a><a style=""""></a></div></div>","15","15","1","68","while a <= 10:
   a *= 3
   a -= 1","15","2"
"","html-keyboard-response","310","1353338","0.0-9.0-7.0-3.0-0.0","499","<div><div style=""""><a style=""white-space:pre-wrap;""> while a <= 10:
   a *= 3
   a -= 1</a><a style=""""></a></div></div>","14","14","1","68","while a <= 10:
   a *= 3
   a -= 1","14","3"
"","html-keyboard-response","311","1354474","0.0-9.0-7.0-4.0-0.0","624","<div><div style=""""><a style=""white-space:pre-wrap;""> while a <= 10:
   a *= 3
   a -= 1</a><a style=""""></a></div></div>","backspace","","1","","","backspace",""
"","html-keyboard-response","312","1359481","0.0-9.0-8.0-0.0-0.0","4501","<div><div style=""""><a style=""white-space:pre-wrap;""> while a >= 4:
   a -= 5
   a += 1</a><a style=""""></a></div></div>","9","9","1","69","while a >= 4:
   a -= 5
   a += 1","9","0"
"","html-keyboard-response","313","1360577","0.0-9.0-8.0-1.0-0.0","578","<div><div style=""""><a style=""white-space:pre-wrap;""> while a >= 4:
   a -= 5
   a += 1</a><a style=""""></a></div></div>","10","10","1","69","while a >= 4:
   a -= 5
   a += 1","10","1"
"","html-keyboard-response","314","1363787","0.0-9.0-8.0-2.0-0.0","2700","<div><div style=""""><a style=""white-space:pre-wrap;""> while a >= 4:
   a -= 5
   a += 1</a><a style=""""></a></div></div>","5","5","1","69","while a >= 4:
   a -= 5
   a += 1","5","2"
"","html-keyboard-response","315","1365331","0.0-9.0-8.0-3.0-0.0","1041","<div><div style=""""><a style=""white-space:pre-wrap;""> while a >= 4:
   a -= 5
   a += 1</a><a style=""""></a></div></div>","6","6","1","69","while a >= 4:
   a -= 5
   a += 1","6","3"
"","html-keyboard-response","316","1368162","0.0-9.0-8.0-4.0-0.0","2322","<div><div style=""""><a style=""white-space:pre-wrap;""> while a >= 4:
   a -= 5
   a += 1</a><a style=""""></a></div></div>","1","1","1","69","while a >= 4:
   a -= 5
   a += 1","1","4"
"","html-keyboard-response","317","1368938","0.0-9.0-8.0-5.0-0.0","258","<div><div style=""""><a style=""white-space:pre-wrap;""> while a >= 4:
   a -= 5
   a += 1</a><a style=""""></a></div></div>","2","2","1","69","while a >= 4:
   a -= 5
   a += 1","2","5"
"","html-keyboard-response","318","1369715","0.0-9.0-8.0-6.0-0.0","265","<div><div style=""""><a style=""white-space:pre-wrap;""> while a >= 4:
   a -= 5
   a += 1</a><a style=""""></a></div></div>","backspace","","1","","","backspace",""
"","html-keyboard-response","319","1371858","0.0-9.0-9.0-0.0-0.0","1638","<div><div style=""""><a style=""white-space:pre-wrap;""> for i in [1, 2]:
   a *= 3</a><a style=""""></a></div></div>","6","6","1","70","for i in [1, 2]:
   a *= 3","6","0"
"","html-keyboard-response","320","1373746","0.0-9.0-9.0-1.0-0.0","1366","<div><div style=""""><a style=""white-space:pre-wrap;""> for i in [1, 2]:
   a *= 3</a><a style=""""></a></div></div>","12","18","0","70","for i in [1, 2]:
   a *= 3","18","1"
"","html-keyboard-response","322","1378138","0.0-9.0-9.0-2.0-0.0","377","<div><div style=""""><a style=""white-space:pre-wrap;""> for i in [1, 2]:
   a *= 3</a><a style=""""></a></div></div>","backspace","","1","","","backspace",""
"","html-keyboard-response","323","1381721","0.0-9.0-10.0-0.0-0.0","3070","<div><div style=""""><a style=""white-space:pre-wrap;""> while a >= 11:
   a /= 3
   a *= 2</a><a style=""""></a></div></div>","6","6","1","71","while a >= 11:
   a /= 3
   a *= 2","6","0"
"","html-keyboard-response","324","1383130","0.0-9.0-10.0-1.0-0.0","900","<div><div style=""""><a style=""white-space:pre-wrap;""> while a >= 11:
   a /= 3
   a *= 2</a><a style=""""></a></div></div>","12","12","1","71","while a >= 11:
   a /= 3
   a *= 2","12","1"
"","html-keyboard-response","325","1386162","0.0-9.0-10.0-2.0-0.0","2512","<div><div style=""""><a style=""white-space:pre-wrap;""> while a >= 11:
   a /= 3
   a *= 2</a><a style=""""></a></div></div>","4","4","1","71","while a >= 11:
   a /= 3
   a *= 2","4","2"
"","html-keyboard-response","326","1387594","0.0-9.0-10.0-3.0-0.0","914","<div><div style=""""><a style=""white-space:pre-wrap;""> while a >= 11:
   a /= 3
   a *= 2</a><a style=""""></a></div></div>","8","8","1","71","while a >= 11:
   a /= 3
   a *= 2","8","3"
"","html-keyboard-response","327","1388835","0.0-9.0-10.0-4.0-0.0","735","<div><div style=""""><a style=""white-space:pre-wrap;""> while a >= 11:
   a /= 3
   a *= 2</a><a style=""""></a></div></div>","backspace","","1","","","backspace",""
"","html-keyboard-response","328","1391034","0.0-9.0-11.0-0.0-0.0","1694","<div><div style=""""><a style=""white-space:pre-wrap;""> while a <= 17:
   a += 4</a><a style=""""></a></div></div>","12","12","1","72","while a <= 17:
   a += 4","12","0"
"","html-keyboard-response","329","1395427","0.0-9.0-11.0-1.0-0.0","3887","<div><div style=""""><a style=""white-space:pre-wrap;""> while a <= 17:
   a += 4</a><a style=""""></a></div></div>","16","16","1","72","while a <= 17:
   a += 4","16","1"
"","html-keyboard-response","330","1396379","0.0-9.0-11.0-2.0-0.0","449","<div><div style=""""><a style=""white-space:pre-wrap;""> while a <= 17:
   a += 4</a><a style=""""></a></div></div>","20","20","1","72","while a <= 17:
   a += 4","20","2"
"","html-keyboard-response","331","1397330","0.0-9.0-11.0-3.0-0.0","430","<div><div style=""""><a style=""white-space:pre-wrap;""> while a <= 17:
   a += 4</a><a style=""""></a></div></div>","backspace","","1","","","backspace",""
"","html-keyboard-response","332","1399371","0.0-10.0-1.0","1519","<p style=""font-size: 25px;"">Please press space to start the next program<br>>>>>>></p>"," ","","","","","",""
"","html-keyboard-response","333","1401594","0.0-10.0-2.0","2222","<div><div style="" font-size:25px; color:green;""><a style=""white-space:pre-wrap;""> a = 8</a><a style=""""></a></div></div>","","null","","46","a = 8","",""
"","html-keyboard-response","334","1405827","0.0-10.0-4.0-0.0-0.0","3727","<div><div style=""""><a style=""white-space:pre-wrap;""> for i in [1, 2, 3]:
   a -= 2
   a += 6</a><a style=""""></a></div></div>","6","6","1","47","for i in [1, 2, 3]:
   a -= 2
   a += 6","6","0"
"","html-keyboard-response","335","1406875","0.0-10.0-4.0-1.0-0.0","535","<div><div style=""""><a style=""white-space:pre-wrap;""> for i in [1, 2, 3]:
   a -= 2
   a += 6</a><a style=""""></a></div></div>","12","12","1","47","for i in [1, 2, 3]:
   a -= 2
   a += 6","12","1"
"","html-keyboard-response","336","1411763","0.0-10.0-4.0-2.0-0.0","4383","<div><div style=""""><a style=""white-space:pre-wrap;""> for i in [1, 2, 3]:
   a -= 2
   a += 6</a><a style=""""></a></div></div>","10","10","1","47","for i in [1, 2, 3]:
   a -= 2
   a += 6","10","2"
"","html-keyboard-response","337","1413122","0.0-10.0-4.0-3.0-0.0","842","<div><div style=""""><a style=""white-space:pre-wrap;""> for i in [1, 2, 3]:
   a -= 2
   a += 6</a><a style=""""></a></div></div>","16","16","1","47","for i in [1, 2, 3]:
   a -= 2
   a += 6","16","3"
"","html-keyboard-response","338","1415106","0.0-10.0-4.0-4.0-0.0","1466","<div><div style=""""><a style=""white-space:pre-wrap;""> for i in [1, 2, 3]:
   a -= 2
   a += 6</a><a style=""""></a></div></div>","14","14","1","47","for i in [1, 2, 3]:
   a -= 2
   a += 6","14","4"
"","html-keyboard-response","339","1417155","0.0-10.0-4.0-5.0-0.0","1535","<div><div style=""""><a style=""white-space:pre-wrap;""> for i in [1, 2, 3]:
   a -= 2
   a += 6</a><a style=""""></a></div></div>","20","20","1","47","for i in [1, 2, 3]:
   a -= 2
   a += 6","20","5"
"","html-keyboard-response","340","1418547","0.0-10.0-4.0-6.0-0.0","885","<div><div style=""""><a style=""white-space:pre-wrap;""> for i in [1, 2, 3]:
   a -= 2
   a += 6</a><a style=""""></a></div></div>","backspace","","1","","","backspace",""
"","html-keyboard-response","341","1421499","0.0-10.0-5.0-0.0-0.0","2448","<div><div style=""""><a style=""white-space:pre-wrap;""> for i in [1, 2]:
   a /= 2</a><a style=""""></a></div></div>","10","10","1","48","for i in [1, 2]:
   a /= 2","10","0"
"","html-keyboard-response","342","1422594","0.0-10.0-5.0-1.0-0.0","574","<div><div style=""""><a style=""white-space:pre-wrap;""> for i in [1, 2]:
   a /= 2</a><a style=""""></a></div></div>","5","5","1","48","for i in [1, 2]:
   a /= 2","5","1"
"","html-keyboard-response","343","1423467","0.0-10.0-5.0-2.0-0.0","366","<div><div style=""""><a style=""white-space:pre-wrap;""> for i in [1, 2]:
   a /= 2</a><a style=""""></a></div></div>","backspace","","1","","","backspace",""
"","html-keyboard-response","344","1430875","0.0-10.0-6.0-0.0-0.0","6894","<div><div style=""""><a style=""white-space:pre-wrap;""> while a <= 15:
   a = round_up(a*1.5)</a><a style=""""></a></div></div>","8","8","1","49","while a <= 15:
   a = round_up(a*1.5)","8","0"
"","html-keyboard-response","345","1434699","0.0-10.0-6.0-1.0-0.0","3318","<div><div style=""""><a style=""white-space:pre-wrap;""> while a <= 15:
   a = round_up(a*1.5)</a><a style=""""></a></div></div>","12","12","1","49","while a <= 15:
   a = round_up(a*1.5)","12","1"
"","html-keyboard-response","346","1437698","0.0-10.0-6.0-2.0-0.0","2479","<div><div style=""""><a style=""white-space:pre-wrap;""> while a <= 15:
   a = round_up(a*1.5)</a><a style=""""></a></div></div>","18","18","1","49","while a <= 15:
   a = round_up(a*1.5)","18","2"
"","html-keyboard-response","347","1438523","0.0-10.0-6.0-3.0-0.0","302","<div><div style=""""><a style=""white-space:pre-wrap;""> while a <= 15:
   a = round_up(a*1.5)</a><a style=""""></a></div></div>","backspace","","1","","","backspace",""
"","html-keyboard-response","348","1444827","0.0-10.0-7.0-0.0-0.0","5796","<div><div style=""""><a style=""white-space:pre-wrap;""> for i in [1, 2, 3, 4]:
   a = average(a,2)</a><a style=""""></a></div></div>","10","10","1","50","for i in [1, 2, 3, 4]:
   a = average(a,2)","10","0"
"","html-keyboard-response","349","1446450","0.0-10.0-7.0-1.0-0.0","1110","<div><div style=""""><a style=""white-space:pre-wrap;""> for i in [1, 2, 3, 4]:
   a = average(a,2)</a><a style=""""></a></div></div>","6","6","1","50","for i in [1, 2, 3, 4]:
   a = average(a,2)","6","1"
"","html-keyboard-response","350","1448979","0.0-10.0-7.0-2.0-0.0","2008","<div><div style=""""><a style=""white-space:pre-wrap;""> for i in [1, 2, 3, 4]:
   a = average(a,2)</a><a style=""""></a></div></div>","4","4","1","50","for i in [1, 2, 3, 4]:
   a = average(a,2)","4","2"
"","html-keyboard-response","351","1452418","0.0-10.0-7.0-3.0-0.0","2918","<div><div style=""""><a style=""white-space:pre-wrap;""> for i in [1, 2, 3, 4]:
   a = average(a,2)</a><a style=""""></a></div></div>","3","3","1","50","for i in [1, 2, 3, 4]:
   a = average(a,2)","3","3"
"","html-keyboard-response","352","1463427","0.0-10.0-7.0-4.0-0.0","10490","<div><div style=""""><a style=""white-space:pre-wrap;""> for i in [1, 2, 3, 4]:
   a = average(a,2)</a><a style=""""></a></div></div>","backspace","","1","","","backspace",""
"","html-keyboard-response","353","1465667","0.0-10.0-8.0-0.0-0.0","1721","<div><div style=""""><a style=""white-space:pre-wrap;""> for i in [1, 2]:
   a += 7
   a /= 2</a><a style=""""></a></div></div>","10","10","1","51","for i in [1, 2]:
   a += 7
   a /= 2","10","0"
"","html-keyboard-response","354","1467035","0.0-10.0-8.0-1.0-0.0","849","<div><div style=""""><a style=""white-space:pre-wrap;""> for i in [1, 2]:
   a += 7
   a /= 2</a><a style=""""></a></div></div>","5","5","1","51","for i in [1, 2]:
   a += 7
   a /= 2","5","1"
"","html-keyboard-response","355","1472371","0.0-10.0-8.0-2.0-0.0","4825","<div><div style=""""><a style=""white-space:pre-wrap;""> for i in [1, 2]:
   a += 7
   a /= 2</a><a style=""""></a></div></div>","12","12","1","51","for i in [1, 2]:
   a += 7
   a /= 2","12","2"
"","html-keyboard-response","356","1473691","0.0-10.0-8.0-3.0-0.0","805","<div><div style=""""><a style=""white-space:pre-wrap;""> for i in [1, 2]:
   a += 7
   a /= 2</a><a style=""""></a></div></div>","6","6","1","51","for i in [1, 2]:
   a += 7
   a /= 2","6","3"
"","html-keyboard-response","357","1474442","0.0-10.0-8.0-4.0-0.0","237","<div><div style=""""><a style=""white-space:pre-wrap;""> for i in [1, 2]:
   a += 7
   a /= 2</a><a style=""""></a></div></div>","backspace","","1","","","backspace",""
"","html-keyboard-response","358","1478666","0.0-10.0-9.0-0.0-0.0","3710","<div><div style=""""><a style=""white-space:pre-wrap;""> while a <= 15:
   a += 3</a><a style=""""></a></div></div>","9","9","1","52","while a <= 15:
   a += 3","9","0"
"","html-keyboard-response","359","1481098","0.0-10.0-9.0-1.0-0.0","1923","<div><div style=""""><a style=""white-space:pre-wrap;""> while a <= 15:
   a += 3</a><a style=""""></a></div></div>","12","12","1","52","while a <= 15:
   a += 3","12","1"
"","html-keyboard-response","360","1482946","0.0-10.0-9.0-2.0-0.0","1341","<div><div style=""""><a style=""white-space:pre-wrap;""> while a <= 15:
   a += 3</a><a style=""""></a></div></div>","15","15","1","52","while a <= 15:
   a += 3","15","2"
"","html-keyboard-response","361","1484474","0.0-10.0-9.0-3.0-0.0","1009","<div><div style=""""><a style=""white-space:pre-wrap;""> while a <= 15:
   a += 3</a><a style=""""></a></div></div>","18","18","1","52","while a <= 15:
   a += 3","18","3"
"","html-keyboard-response","362","1485266","0.0-10.0-9.0-4.0-0.0","271","<div><div style=""""><a style=""white-space:pre-wrap;""> while a <= 15:
   a += 3</a><a style=""""></a></div></div>","backspace","","1","","","backspace",""
"","html-keyboard-response","363","1489322","0.0-10.0-10.0-0.0-0.0","3536","<div><div style=""""><a style=""white-space:pre-wrap;""> for i in [1, 2]:
   a /= 3
   a *= 2</a><a style=""""></a></div></div>","6","6","1","53","for i in [1, 2]:
   a /= 3
   a *= 2","6","0"
"","html-keyboard-response","364","1490850","0.0-10.0-10.0-1.0-0.0","1015","<div><div style=""""><a style=""white-space:pre-wrap;""> for i in [1, 2]:
   a /= 3
   a *= 2</a><a style=""""></a></div></div>","12","12","1","53","for i in [1, 2]:
   a /= 3
   a *= 2","12","1"
"","html-keyboard-response","365","1494386","0.0-10.0-10.0-2.0-0.0","3031","<div><div style=""""><a style=""white-space:pre-wrap;""> for i in [1, 2]:
   a /= 3
   a *= 2</a><a style=""""></a></div></div>","4","4","1","53","for i in [1, 2]:
   a /= 3
   a *= 2","4","2"
"","html-keyboard-response","366","1496130","0.0-10.0-10.0-3.0-0.0","1225","<div><div style=""""><a style=""white-space:pre-wrap;""> for i in [1, 2]:
   a /= 3
   a *= 2</a><a style=""""></a></div></div>","8","8","1","53","for i in [1, 2]:
   a /= 3
   a *= 2","8","3"
"","html-keyboard-response","367","1496914","0.0-10.0-10.0-4.0-0.0","279","<div><div style=""""><a style=""white-space:pre-wrap;""> for i in [1, 2]:
   a /= 3
   a *= 2</a><a style=""""></a></div></div>","backspace","","1","","","backspace",""
"","html-keyboard-response","368","1502626","0.0-10.0-11.0-0.0-0.0","5190","<div><div style=""""><a style=""white-space:pre-wrap;""> for i in [1, 2, 3]:
   a *= 2
   a -= 9</a><a style=""""></a></div></div>","16","16","1","54","for i in [1, 2, 3]:
   a *= 2
   a -= 9","16","0"
"","html-keyboard-response","369","1509354","0.0-10.0-11.0-1.0-0.0","6210","<div><div style=""""><a style=""white-space:pre-wrap;""> for i in [1, 2, 3]:
   a *= 2
   a -= 9</a><a style=""""></a></div></div>","7","7","1","54","for i in [1, 2, 3]:
   a *= 2
   a -= 9","7","1"
"","html-keyboard-response","370","1511930","0.0-10.0-11.0-2.0-0.0","2055","<div><div style=""""><a style=""white-space:pre-wrap;""> for i in [1, 2, 3]:
   a *= 2
   a -= 9</a><a style=""""></a></div></div>","14","14","1","54","for i in [1, 2, 3]:
   a *= 2
   a -= 9","14","2"
"","html-keyboard-response","371","1516890","0.0-10.0-11.0-3.0-0.0","4445","<div><div style=""""><a style=""white-space:pre-wrap;""> for i in [1, 2, 3]:
   a *= 2
   a -= 9</a><a style=""""></a></div></div>","5","5","1","54","for i in [1, 2, 3]:
   a *= 2
   a -= 9","5","3"
"","html-keyboard-response","372","1519154","0.0-10.0-11.0-4.0-0.0","1749","<div><div style=""""><a style=""white-space:pre-wrap;""> for i in [1, 2, 3]:
   a *= 2
   a -= 9</a><a style=""""></a></div></div>","10","10","1","54","for i in [1, 2, 3]:
   a *= 2
   a -= 9","10","4"
"","html-keyboard-response","373","1520098","0.0-10.0-11.0-5.0-0.0","438","<div><div style=""""><a style=""white-space:pre-wrap;""> for i in [1, 2, 3]:
   a *= 2
   a -= 9</a><a style=""""></a></div></div>","1","1","1","54","for i in [1, 2, 3]:
   a *= 2
   a -= 9","1","5"
"","html-keyboard-response","374","1520850","0.0-10.0-11.0-6.0-0.0","245","<div><div style=""""><a style=""white-space:pre-wrap;""> for i in [1, 2, 3]:
   a *= 2
   a -= 9</a><a style=""""></a></div></div>","backspace","","1","","","backspace",""
"","html-keyboard-response","375","1522706","0.0-11.0-1.0","1350","<p style=""font-size: 25px;"">Please press space to start the next program<br>>>>>>></p>"," ","","","","","",""
"","html-keyboard-response","376","1524306","0.0-11.0-2.0","1598","<div><div style="" font-size:25px; color:green;""><a style=""white-space:pre-wrap;""> a = 16</a><a style=""""></a></div></div>","","null","","73","a = 16","",""
"","html-keyboard-response","377","1529226","0.0-11.0-4.0-0.0-0.0","4401","<div><div style=""""><a style=""white-space:pre-wrap;""> while a >= 6:
   a /= 2</a><a style=""""></a></div></div>","8","8","1","74","while a >= 6:
   a /= 2","8","0"
"","html-keyboard-response","378","1531506","0.0-11.0-4.0-1.0-0.0","1761","<div><div style=""""><a style=""white-space:pre-wrap;""> while a >= 6:
   a /= 2</a><a style=""""></a></div></div>","4","4","1","74","while a >= 6:
   a /= 2","4","1"
"","html-keyboard-response","379","1532282","0.0-11.0-4.0-2.0-0.0","257","<div><div style=""""><a style=""white-space:pre-wrap;""> while a >= 6:
   a /= 2</a><a style=""""></a></div></div>","backspace","","1","","","backspace",""
"","html-keyboard-response","380","1535306","0.0-11.0-5.0-0.0-0.0","2520","<div><div style=""""><a style=""white-space:pre-wrap;""> for i in [1, 2, 3]:
   a = round_up(a*1.5)</a><a style=""""></a></div></div>","6","6","1","75","for i in [1, 2, 3]:
   a = round_up(a*1.5)","6","0"
"","html-keyboard-response","381","1537714","0.0-11.0-5.0-1.0-0.0","1889","<div><div style=""""><a style=""white-space:pre-wrap;""> for i in [1, 2, 3]:
   a = round_up(a*1.5)</a><a style=""""></a></div></div>","9","9","1","75","for i in [1, 2, 3]:
   a = round_up(a*1.5)","9","1"
"","html-keyboard-response","382","1543971","0.0-11.0-5.0-2.0-0.0","5745","<div><div style=""""><a style=""white-space:pre-wrap;""> for i in [1, 2, 3]:
   a = round_up(a*1.5)</a><a style=""""></a></div></div>","14","14","1","75","for i in [1, 2, 3]:
   a = round_up(a*1.5)","14","2"
"","html-keyboard-response","383","1545058","0.0-11.0-5.0-3.0-0.0","583","<div><div style=""""><a style=""white-space:pre-wrap;""> for i in [1, 2, 3]:
   a = round_up(a*1.5)</a><a style=""""></a></div></div>","backspace","","1","","","backspace",""
"","html-keyboard-response","384","1550865","0.0-11.0-6.0-0.0-0.0","5290","<div><div style=""""><a style=""white-space:pre-wrap;""> for i in [1, 2]:
   a += 5
   a -= 6</a><a style=""""></a></div></div>","19","19","1","76","for i in [1, 2]:
   a += 5
   a -= 6","19","0"
"","html-keyboard-response","385","1552290","0.0-11.0-6.0-1.0-0.0","915","<div><div style=""""><a style=""white-space:pre-wrap;""> for i in [1, 2]:
   a += 5
   a -= 6</a><a style=""""></a></div></div>","13","13","1","76","for i in [1, 2]:
   a += 5
   a -= 6","13","1"
"","html-keyboard-response","386","1555505","0.0-11.0-6.0-2.0-0.0","2700","<div><div style=""""><a style=""white-space:pre-wrap;""> for i in [1, 2]:
   a += 5
   a -= 6</a><a style=""""></a></div></div>","18","18","1","76","for i in [1, 2]:
   a += 5
   a -= 6","18","2"
"","html-keyboard-response","387","1557258","0.0-11.0-6.0-3.0-0.0","1233","<div><div style=""""><a style=""white-space:pre-wrap;""> for i in [1, 2]:
   a += 5
   a -= 6</a><a style=""""></a></div></div>","12","12","1","76","for i in [1, 2]:
   a += 5
   a -= 6","12","3"
"","html-keyboard-response","388","1558058","0.0-11.0-6.0-4.0-0.0","283","<div><div style=""""><a style=""white-space:pre-wrap;""> for i in [1, 2]:
   a += 5
   a -= 6</a><a style=""""></a></div></div>","backspace","","1","","","backspace",""
"","html-keyboard-response","389","1567203","0.0-11.0-7.0-0.0-0.0","8626","<div><div style=""""><a style=""white-space:pre-wrap;""> while a >= 6:
   a = average(a,4)</a><a style=""""></a></div></div>","8","8","1","77","while a >= 6:
   a = average(a,4)","8","0"
"","html-keyboard-response","390","1571194","0.0-11.0-7.0-1.0-0.0","3489","<div><div style=""""><a style=""white-space:pre-wrap;""> while a >= 6:
   a = average(a,4)</a><a style=""""></a></div></div>","6","6","1","77","while a >= 6:
   a = average(a,4)","6","1"
"","html-keyboard-response","391","1574523","0.0-11.0-7.0-2.0-0.0","2817","<div><div style=""""><a style=""white-space:pre-wrap;""> while a >= 6:
   a = average(a,4)</a><a style=""""></a></div></div>","5","5","1","77","while a >= 6:
   a = average(a,4)","5","2"
"","html-keyboard-response","392","1575306","0.0-11.0-7.0-3.0-0.0","281","<div><div style=""""><a style=""white-space:pre-wrap;""> while a >= 6:
   a = average(a,4)</a><a style=""""></a></div></div>","backspace","","1","","","backspace",""
"","html-keyboard-response","393","1578667","0.0-11.0-8.0-0.0-0.0","2841","<div><div style=""""><a style=""white-space:pre-wrap;""> while a >= 3:
   a *= 3
   a -= 11</a><a style=""""></a></div></div>","15","15","1","78","while a >= 3:
   a *= 3
   a -= 11","15","0"
"","html-keyboard-response","394","1580218","0.0-11.0-8.0-1.0-0.0","1033","<div><div style=""""><a style=""white-space:pre-wrap;""> while a >= 3:
   a *= 3
   a -= 11</a><a style=""""></a></div></div>","4","4","1","78","while a >= 3:
   a *= 3
   a -= 11","4","1"
"","html-keyboard-response","395","1583042","0.0-11.0-8.0-2.0-0.0","2317","<div><div style=""""><a style=""white-space:pre-wrap;""> while a >= 3:
   a *= 3
   a -= 11</a><a style=""""></a></div></div>","12","12","1","78","while a >= 3:
   a *= 3
   a -= 11","12","2"
"","html-keyboard-response","396","1584506","0.0-11.0-8.0-3.0-0.0","961","<div><div style=""""><a style=""white-space:pre-wrap;""> while a >= 3:
   a *= 3
   a -= 11</a><a style=""""></a></div></div>","1","1","1","78","while a >= 3:
   a *= 3
   a -= 11","1","3"
"","html-keyboard-response","397","1587650","0.0-11.0-8.0-4.0-0.0","2625","<div><div style=""""><a style=""white-space:pre-wrap;""> while a >= 3:
   a *= 3
   a -= 11</a><a style=""""></a></div></div>","3","","0","","","backspace",""
"","html-keyboard-response","398","1591665","0.0-11.0-8.0-4.0-1.0-0.0","null","<div><p style=""font-size:25px; color:green;"">end of loop<br>>>>>>></p>
						<div>Hit the ""end loop"" key to continue</div></div>","null","","","","","",""
"","html-keyboard-response","399","1592563","0.0-11.0-8.0-4.1-0.1","895","<div><div style=""""><a style=""white-space:pre-wrap;""> while a >= 3:
   a *= 3
   a -= 11</a><a style=""""></a></div></div>","backspace","","1","","","backspace",""
"","html-keyboard-response","400","1598298","0.0-11.0-9.0-0.0-0.0","5222","<div><div style=""""><a style=""white-space:pre-wrap;""> while a <= 7:
   a *= 6
   a /= 2</a><a style=""""></a></div></div>","6","6","1","79","while a <= 7:
   a *= 6
   a /= 2","6","0"
"","html-keyboard-response","401","1599722","0.0-11.0-9.0-1.0-0.0","921","<div><div style=""""><a style=""white-space:pre-wrap;""> while a <= 7:
   a *= 6
   a /= 2</a><a style=""""></a></div></div>","3","3","1","79","while a <= 7:
   a *= 6
   a /= 2","3","1"
"","html-keyboard-response","402","1603203","0.0-11.0-9.0-2.0-0.0","2977","<div><div style=""""><a style=""white-space:pre-wrap;""> while a <= 7:
   a *= 6
