"success","trial_type","trial_index","time_elapsed","internal_node_id","rt","stimulus","response","expected_response","correct","uid","text1","correct_response","loop_step"
"true","fullscreen","0","5720","0.0-0.0","","","","","","","","",""
"","html-keyboard-response","1","11993","0.0-1.0","6269","Please make sure that your keyboard is in English mode. Press 'A' to continue","a","","","","","",""
"","html-keyboard-response","2","13031","0.0-2.0-1.0","1036","<p style=""font-size: 25px;"">Please press space to start the next program<br>>>>>>></p>"," ","","","","","",""
"","html-keyboard-response","3","16752","0.0-2.0-2.0","3718","<div><div style="" font-size:25px; color:green;""><a style=""white-space:pre-wrap;""> a = 11</a><a style=""""></a></div></div>","","null","","55","a = 11","",""
"","html-keyboard-response","4","21799","0.0-2.0-4.0-0.0-0.0","4530","<div><div style=""""><a style=""white-space:pre-wrap;""> while a >= 5:
   a += 4
   a /= 3</a><a style=""""></a></div></div>","15","15","1","56","while a >= 5:
   a += 4
   a /= 3","15","0"
"","html-keyboard-response","5","24080","0.0-2.0-4.0-1.0-0.0","1771","<div><div style=""""><a style=""white-space:pre-wrap;""> while a >= 5:
   a += 4
   a /= 3</a><a style=""""></a></div></div>","5","5","1","56","while a >= 5:
   a += 4
   a /= 3","5","1"
"","html-keyboard-response","6","26271","0.0-2.0-4.0-2.0-0.0","1678","<div><div style=""""><a style=""white-space:pre-wrap;""> while a >= 5:
   a += 4
   a /= 3</a><a style=""""></a></div></div>","9","9","1","56","while a >= 5:
   a += 4
   a /= 3","9","2"
"","html-keyboard-response","7","27856","0.0-2.0-4.0-3.0-0.0","1071","<div><div style=""""><a style=""white-space:pre-wrap;""> while a >= 5:
   a += 4
   a /= 3</a><a style=""""></a></div></div>","3","3","1","56","while a >= 5:
   a += 4
   a /= 3","3","3"
"","html-keyboard-response","8","28647","0.0-2.0-4.0-4.0-0.0","279","<div><div style=""""><a style=""white-space:pre-wrap;""> while a >= 5:
   a += 4
   a /= 3</a><a style=""""></a></div></div>","backspace","backspace","1","56","while a >= 5:
   a += 4
   a /= 3","backspace","4"
"","html-keyboard-response","9","37408","0.0-2.0-5.0-0.0-0.0","8245","<div><div style=""""><a style=""white-space:pre-wrap;""> for i in [1, 2]:
   a = round_down(a*2.5)</a><a style=""""></a></div></div>","7","7","1","57","for i in [1, 2]:
   a = round_down(a*2.5)","7","0"
"","html-keyboard-response","10","48608","0.0-2.0-5.0-1.0-0.0","10683","<div><div style=""""><a style=""white-space:pre-wrap;""> for i in [1, 2]:
   a = round_down(a*2.5)</a><a style=""""></a></div></div>","17","17","1","57","for i in [1, 2]:
   a = round_down(a*2.5)","17","1"
"","html-keyboard-response","11","49471","0.0-2.0-5.0-2.0-0.0","354","<div><div style=""""><a style=""white-space:pre-wrap;""> for i in [1, 2]:
   a = round_down(a*2.5)</a><a style=""""></a></div></div>","backspace","backspace","1","57","for i in [1, 2]:
   a = round_down(a*2.5)","backspace","2"
"","html-keyboard-response","12","55391","0.0-2.0-6.0-0.0-0.0","5415","<div><div style=""""><a style=""white-space:pre-wrap;""> for i in [1, 2, 3, 4]:
   a = average(a,1)</a><a style=""""></a></div></div>","9","9","1","58","for i in [1, 2, 3, 4]:
   a = average(a,1)","9","0"
"","html-keyboard-response","13","57247","0.0-2.0-6.0-1.0-0.0","1352","<div><div style=""""><a style=""white-space:pre-wrap;""> for i in [1, 2, 3, 4]:
   a = average(a,1)</a><a style=""""></a></div></div>","5","5","1","58","for i in [1, 2, 3, 4]:
   a = average(a,1)","5","1"
"","html-keyboard-response","14","60047","0.0-2.0-6.0-2.0-0.0","2290","<div><div style=""""><a style=""white-space:pre-wrap;""> for i in [1, 2, 3, 4]:
   a = average(a,1)</a><a style=""""></a></div></div>","3","3","1","58","for i in [1, 2, 3, 4]:
   a = average(a,1)","3","2"
"","html-keyboard-response","15","64047","0.0-2.0-6.0-3.0-0.0","3491","<div><div style=""""><a style=""white-space:pre-wrap;""> for i in [1, 2, 3, 4]:
   a = average(a,1)</a><a style=""""></a></div></div>","2","2","1","58","for i in [1, 2, 3, 4]:
   a = average(a,1)","2","3"
"","html-keyboard-response","16","65047","0.0-2.0-6.0-4.0-0.0","495","<div><div style=""""><a style=""white-space:pre-wrap;""> for i in [1, 2, 3, 4]:
   a = average(a,1)</a><a style=""""></a></div></div>","backspace","backspace","1","58","for i in [1, 2, 3, 4]:
   a = average(a,1)","backspace","4"
"","html-keyboard-response","17","72055","0.0-2.0-7.0-0.0-0.0","6500","<div><div style=""""><a style=""white-space:pre-wrap;""> for i in [1, 2]:
   a *= 3
   a -= 1</a><a style=""""></a></div></div>","6","6","1","59","for i in [1, 2]:
   a *= 3
   a -= 1","6","0"
"","html-keyboard-response","18","73135","0.0-2.0-7.0-1.0-0.0","574","<div><div style=""""><a style=""white-space:pre-wrap;""> for i in [1, 2]:
   a *= 3
   a -= 1</a><a style=""""></a></div></div>","5","5","1","59","for i in [1, 2]:
   a *= 3
   a -= 1","5","1"
"","html-keyboard-response","19","75119","0.0-2.0-7.0-2.0-0.0","1478","<div><div style=""""><a style=""white-space:pre-wrap;""> for i in [1, 2]:
   a *= 3
   a -= 1</a><a style=""""></a></div></div>","15","15","1","59","for i in [1, 2]:
   a *= 3
   a -= 1","15","2"
"","html-keyboard-response","20","75919","0.0-2.0-7.0-3.0-0.0","296","<div><div style=""""><a style=""white-space:pre-wrap;""> for i in [1, 2]:
   a *= 3
   a -= 1</a><a style=""""></a></div></div>","14","14","1","59","for i in [1, 2]:
   a *= 3
   a -= 1","14","3"
"","html-keyboard-response","21","76695","0.0-2.0-7.0-4.0-0.0","259","<div><div style=""""><a style=""white-space:pre-wrap;""> for i in [1, 2]:
   a *= 3
   a -= 1</a><a style=""""></a></div></div>","backspace","backspace","1","59","for i in [1, 2]:
   a *= 3
   a -= 1","backspace","4"
"","html-keyboard-response","22","79623","0.0-2.0-8.0-0.0-0.0","2420","<div><div style=""""><a style=""white-space:pre-wrap;""> while a >= 4:
   a -= 5
   a += 1</a><a style=""""></a></div></div>","9","9","1","60","while a >= 4:
   a -= 5
   a += 1","9","0"
"","html-keyboard-response","23","81439","0.0-2.0-8.0-1.0-0.0","1300","<div><div style=""""><a style=""white-space:pre-wrap;""> while a >= 4:
   a -= 5
   a += 1</a><a style=""""></a></div></div>","10","10","1","60","while a >= 4:
   a -= 5
   a += 1","10","1"
"","html-keyboard-response","24","84847","0.0-2.0-8.0-2.0-0.0","2892","<div><div style=""""><a style=""white-space:pre-wrap;""> while a >= 4:
   a -= 5
   a += 1</a><a style=""""></a></div></div>","5","5","1","60","while a >= 4:
   a -= 5
   a += 1","5","2"
"","html-keyboard-response","25","86567","0.0-2.0-8.0-3.0-0.0","1211","<div><div style=""""><a style=""white-space:pre-wrap;""> while a >= 4:
   a -= 5
   a += 1</a><a style=""""></a></div></div>","6","6","1","60","while a >= 4:
   a -= 5
   a += 1","6","3"
"","html-keyboard-response","26","88079","0.0-2.0-8.0-4.0-0.0","1004","<div><div style=""""><a style=""white-space:pre-wrap;""> while a >= 4:
   a -= 5
   a += 1</a><a style=""""></a></div></div>","1","1","1","60","while a >= 4:
   a -= 5
   a += 1","1","4"
"","html-keyboard-response","27","88823","0.0-2.0-8.0-5.0-0.0","233","<div><div style=""""><a style=""white-space:pre-wrap;""> while a >= 4:
   a -= 5
   a += 1</a><a style=""""></a></div></div>","2","2","1","60","while a >= 4:
   a -= 5
   a += 1","2","5"
"","html-keyboard-response","28","89559","0.0-2.0-8.0-6.0-0.0","233","<div><div style=""""><a style=""white-space:pre-wrap;""> while a >= 4:
   a -= 5
   a += 1</a><a style=""""></a></div></div>","backspace","backspace","1","60","while a >= 4:
   a -= 5
   a += 1","backspace","6"
"","html-keyboard-response","29","92631","0.0-2.0-9.0-0.0-0.0","2569","<div><div style=""""><a style=""white-space:pre-wrap;""> while a <= 15:
   a *= 3</a><a style=""""></a></div></div>","6","6","1","61","while a <= 15:
   a *= 3","6","0"
"","html-keyboard-response","30","97255","0.0-2.0-9.0-1.0-0.0","4113","<div><div style=""""><a style=""white-space:pre-wrap;""> while a <= 15:
   a *= 3</a><a style=""""></a></div></div>","18","18","1","61","while a <= 15:
   a *= 3","18","1"
"","html-keyboard-response","31","98079","0.0-2.0-9.0-2.0-0.0","308","<div><div style=""""><a style=""white-space:pre-wrap;""> while a <= 15:
   a *= 3</a><a style=""""></a></div></div>","backspace","backspace","1","61","while a <= 15:
   a *= 3","backspace","2"
"","html-keyboard-response","32","102503","0.0-2.0-10.0-0.0-0.0","3920","<div><div style=""""><a style=""white-space:pre-wrap;""> while a >= 11:
   a /= 3
   a *= 2</a><a style=""""></a></div></div>","6","6","1","62","while a >= 11:
   a /= 3
   a *= 2","6","0"
"","html-keyboard-response","33","104711","0.0-2.0-10.0-1.0-0.0","1703","<div><div style=""""><a style=""white-space:pre-wrap;""> while a >= 11:
   a /= 3
   a *= 2</a><a style=""""></a></div></div>","12","12","1","62","while a >= 11:
   a /= 3
   a *= 2","12","1"
"","html-keyboard-response","34","107151","0.0-2.0-10.0-2.0-0.0","1929","<div><div style=""""><a style=""white-space:pre-wrap;""> while a >= 11:
   a /= 3
   a *= 2</a><a style=""""></a></div></div>","4","4","1","62","while a >= 11:
   a /= 3
   a *= 2","4","2"
"","html-keyboard-response","35","108743","0.0-2.0-10.0-3.0-0.0","1079","<div><div style=""""><a style=""white-space:pre-wrap;""> while a >= 11:
   a /= 3
   a *= 2</a><a style=""""></a></div></div>","8","8","1","62","while a >= 11:
   a /= 3
   a *= 2","8","3"
"","html-keyboard-response","36","109375","0.0-2.0-10.0-4.0-0.0","116","<div><div style=""""><a style=""white-space:pre-wrap;""> while a >= 11:
   a /= 3
   a *= 2</a><a style=""""></a></div></div>","backspace","backspace","1","62","while a >= 11:
   a /= 3
   a *= 2","backspace","4"
"","html-keyboard-response","37","112015","0.0-2.0-11.0-0.0-0.0","2133","<div><div style=""""><a style=""white-space:pre-wrap;""> for i in [1, 2, 3]:
   a += 4</a><a style=""""></a></div></div>","12","12","1","63","for i in [1, 2, 3]:
   a += 4","12","0"
"","html-keyboard-response","38","114839","0.0-2.0-11.0-1.0-0.0","2316","<div><div style=""""><a style=""white-space:pre-wrap;""> for i in [1, 2, 3]:
   a += 4</a><a style=""""></a></div></div>","16","16","1","63","for i in [1, 2, 3]:
   a += 4","16","1"
"","html-keyboard-response","39","116071","0.0-2.0-11.0-2.0-0.0","722","<div><div style=""""><a style=""white-space:pre-wrap;""> for i in [1, 2, 3]:
   a += 4</a><a style=""""></a></div></div>","20","20","1","63","for i in [1, 2, 3]:
   a += 4","20","2"
"","html-keyboard-response","40","117335","0.0-2.0-11.0-3.0-0.0","755","<div><div style=""""><a style=""white-space:pre-wrap;""> for i in [1, 2, 3]:
   a += 4</a><a style=""""></a></div></div>","backspace","backspace","1","63","for i in [1, 2, 3]:
   a += 4","backspace","3"
"","html-keyboard-response","41","119207","0.0-3.0-1.0","1364","<p style=""font-size: 25px;"">Please press space to start the next program<br>>>>>>></p>"," ","","","","","",""
"","html-keyboard-response","42","121095","0.0-3.0-2.0","1886","<div><div style="" font-size:25px; color:green;""><a style=""white-space:pre-wrap;""> a = 9</a><a style=""""></a></div></div>","","null","","91","a = 9","",""
"","html-keyboard-response","43","124151","0.0-3.0-4.0-0.0-0.0","2549","<div><div style=""""><a style=""white-space:pre-wrap;""> while a >= 2:
   a /= 3</a><a style=""""></a></div></div>","3","3","1","92","while a >= 2:
   a /= 3","3","0"
"","html-keyboard-response","44","126079","0.0-3.0-4.0-1.0-0.0","1416","<div><div style=""""><a style=""white-space:pre-wrap;""> while a >= 2:
   a /= 3</a><a style=""""></a></div></div>","1","1","1","92","while a >= 2:
   a /= 3","1","1"
"","html-keyboard-response","45","126719","0.0-3.0-4.0-2.0-0.0","133","<div><div style=""""><a style=""white-space:pre-wrap;""> while a >= 2:
   a /= 3</a><a style=""""></a></div></div>","backspace","backspace","1","92","while a >= 2:
   a /= 3","backspace","2"
"","html-keyboard-response","46","128735","0.0-3.0-5.0-0.0-0.0","1503","<div><div style=""""><a style=""white-space:pre-wrap;""> for i in [1, 2, 3]:
   a += 6</a><a style=""""></a></div></div>","7","7","1","93","for i in [1, 2, 3]:
   a += 6","7","0"
"","html-keyboard-response","47","133432","0.0-3.0-5.0-1.0-0.0","4180","<div><div style=""""><a style=""white-space:pre-wrap;""> for i in [1, 2, 3]:
   a += 6</a><a style=""""></a></div></div>","13","13","1","93","for i in [1, 2, 3]:
   a += 6","13","1"
"","html-keyboard-response","48","134839","0.0-3.0-5.0-2.0-0.0","891","<div><div style=""""><a style=""white-space:pre-wrap;""> for i in [1, 2, 3]:
   a += 6</a><a style=""""></a></div></div>","18","19","0","93","for i in [1, 2, 3]:
   a += 6","19","2"
"","html-keyboard-response","50","139239","0.0-3.0-5.0-3.0-0.0","372","<div><div style=""""><a style=""white-space:pre-wrap;""> for i in [1, 2, 3]:
   a += 6</a><a style=""""></a></div></div>","backspace","backspace","1","93","for i in [1, 2, 3]:
   a += 6","backspace","3"
"","html-keyboard-response","51","142391","0.0-3.0-6.0-0.0-0.0","2648","<div><div style=""""><a style=""white-space:pre-wrap;""> for i in [1, 2]:
   a += 1
   a -= 8</a><a style=""""></a></div></div>","20","20","1","94","for i in [1, 2]:
   a += 1
   a -= 8","20","0"
"","html-keyboard-response","52","143864","0.0-3.0-6.0-1.0-0.0","955","<div><div style=""""><a style=""white-space:pre-wrap;""> for i in [1, 2]:
   a += 1
   a -= 8</a><a style=""""></a></div></div>","12","12","1","94","for i in [1, 2]:
   a += 1
   a -= 8","12","1"
"","html-keyboard-response","53","145991","0.0-3.0-6.0-2.0-0.0","1625","<div><div style=""""><a style=""white-space:pre-wrap;""> for i in [1, 2]:
   a += 1
   a -= 8</a><a style=""""></a></div></div>","13","13","1","94","for i in [1, 2]:
   a += 1
   a -= 8","13","2"
"","html-keyboard-response","54","150359","0.0-3.0-6.0-3.0-0.0","3864","<div><div style=""""><a style=""white-space:pre-wrap;""> for i in [1, 2]:
   a += 1
   a -= 8</a><a style=""""></a></div></div>","5","5","1","94","for i in [1, 2]:
   a += 1
   a -= 8","5","3"
"","html-keyboard-response","55","151103","0.0-3.0-6.0-4.0-0.0","231","<div><div style=""""><a style=""white-space:pre-wrap;""> for i in [1, 2]:
   a += 1
   a -= 8</a><a style=""""></a></div></div>","backspace","backspace","1","94","for i in [1, 2]:
   a += 1
   a -= 8","backspace","4"
"","html-keyboard-response","56","153135","0.0-3.0-7.0-0.0-0.0","1528","<div><div style=""""><a style=""white-space:pre-wrap;""> while a <= 6:
   a *= 3
   a -= 9</a><a style=""""></a></div></div>","15","15","1","95","while a <= 6:
   a *= 3
   a -= 9","15","0"
"","html-keyboard-response","57","155104","0.0-3.0-7.0-1.0-0.0","1459","<div><div style=""""><a style=""white-space:pre-wrap;""> while a <= 6:
   a *= 3
   a -= 9</a><a style=""""></a></div></div>","6","6","1","95","while a <= 6:
   a *= 3
   a -= 9","6","1"
"","html-keyboard-response","58","158551","0.0-3.0-7.0-2.0-0.0","2935","<div><div style=""""><a style=""white-space:pre-wrap;""> while a <= 6:
   a *= 3
   a -= 9</a><a style=""""></a></div></div>","18","18","1","95","while a <= 6:
   a *= 3
   a -= 9","18","2"
"","html-keyboard-response","59","164175","0.0-3.0-7.0-3.0-0.0","5120","<div><div style=""""><a style=""white-space:pre-wrap;""> while a <= 6:
   a *= 3
   a -= 9</a><a style=""""></a></div></div>","9","9","1","95","while a <= 6:
   a *= 3
   a -= 9","9","3"
"","html-keyboard-response","60","168592","0.0-3.0-7.0-4.0-0.0","3909","<div><div style=""""><a style=""white-space:pre-wrap;""> while a <= 6:
   a *= 3
   a -= 9</a><a style=""""></a></div></div>","backspace","backspace","1","95","while a <= 6:
   a *= 3
   a -= 9","backspace","4"
"","html-keyboard-response","61","173663","0.0-3.0-8.0-0.0-0.0","4554","<div><div style=""""><a style=""white-space:pre-wrap;""> while a >= 3:
   a = average(a, 1)</a><a style=""""></a></div></div>","5","5","1","96","while a >= 3:
   a = average(a, 1)","5","0"
"","html-keyboard-response","62","176439","0.0-3.0-8.0-1.0-0.0","2273","<div><div style=""""><a style=""white-space:pre-wrap;""> while a >= 3:
   a = average(a, 1)</a><a style=""""></a></div></div>","3","3","1","96","while a >= 3:
   a = average(a, 1)","3","1"
"","html-keyboard-response","63","179288","0.0-3.0-8.0-2.0-0.0","2335","<div><div style=""""><a style=""white-space:pre-wrap;""> while a >= 3:
   a = average(a, 1)</a><a style=""""></a></div></div>","2","2","1","96","while a >= 3:
   a = average(a, 1)","2","2"
"","html-keyboard-response","64","180007","0.0-3.0-8.0-3.0-0.0","205","<div><div style=""""><a style=""white-space:pre-wrap;""> while a >= 3:
   a = average(a, 1)</a><a style=""""></a></div></div>","backspace","backspace","1","96","while a >= 3:
   a = average(a, 1)","backspace","3"
"","html-keyboard-response","65","182071","0.0-3.0-9.0-0.0-0.0","1550","<div><div style=""""><a style=""white-space:pre-wrap;""> while a <= 9:
   a -= 1
   a *= 5</a><a style=""""></a></div></div>","1","1","1","97","while a <= 9:
   a -= 1
   a *= 5","1","0"
"","html-keyboard-response","66","183647","0.0-3.0-9.0-1.0-0.0","1072","<div><div style=""""><a style=""white-space:pre-wrap;""> while a <= 9:
   a -= 1
   a *= 5</a><a style=""""></a></div></div>","5","5","1","97","while a <= 9:
   a -= 1
   a *= 5","5","1"
"","html-keyboard-response","67","185423","0.0-3.0-9.0-2.0-0.0","1271","<div><div style=""""><a style=""white-space:pre-wrap;""> while a <= 9:
   a -= 1
   a *= 5</a><a style=""""></a></div></div>","4","4","1","97","while a <= 9:
   a -= 1
   a *= 5","4","2"
"","html-keyboard-response","68","186831","0.0-3.0-9.0-3.0-0.0","898","<div><div style=""""><a style=""white-space:pre-wrap;""> while a <= 9:
   a -= 1
   a *= 5</a><a style=""""></a></div></div>","20","20","1","97","while a <= 9:
   a -= 1
   a *= 5","20","3"
"","html-keyboard-response","69","187527","0.0-3.0-9.0-4.0-0.0","186","<div><div style=""""><a style=""white-space:pre-wrap;""> while a <= 9:
   a -= 1
   a *= 5</a><a style=""""></a></div></div>","backspace","backspace","1","97","while a <= 9:
   a -= 1
   a *= 5","backspace","4"
"","html-keyboard-response","70","190047","0.0-3.0-10.0-0.0-0.0","2004","<div><div style=""""><a style=""white-space:pre-wrap;""> for i in [1, 2, 3]:
   a -= 3</a><a style=""""></a></div></div>","17","17","1","98","for i in [1, 2, 3]:
   a -= 3","17","0"
"","html-keyboard-response","71","192063","0.0-3.0-10.0-1.0-0.0","1506","<div><div style=""""><a style=""white-space:pre-wrap;""> for i in [1, 2, 3]:
   a -= 3</a><a style=""""></a></div></div>","14","14","1","98","for i in [1, 2, 3]:
   a -= 3","14","1"
"","html-keyboard-response","72","193111","0.0-3.0-10.0-2.0-0.0","535","<div><div style=""""><a style=""white-space:pre-wrap;""> for i in [1, 2, 3]:
   a -= 3</a><a style=""""></a></div></div>","11","11","1","98","for i in [1, 2, 3]:
   a -= 3","11","2"
"","html-keyboard-response","73","194311","0.0-3.0-10.0-3.0-0.0","686","<div><div style=""""><a style=""white-space:pre-wrap;""> for i in [1, 2, 3]:
   a -= 3</a><a style=""""></a></div></div>","backspace","backspace","1","98","for i in [1, 2, 3]:
   a -= 3","backspace","3"
"","html-keyboard-response","74","197119","0.0-3.0-11.0-0.0-0.0","2304","<div><div style=""""><a style=""white-space:pre-wrap;""> for i in [1, 2]:
   a -= 5</a><a style=""""></a></div></div>","6","6","1","99","for i in [1, 2]:
   a -= 5","6","0"
"","html-keyboard-response","75","198791","0.0-3.0-11.0-1.0-0.0","1166","<div><div style=""""><a style=""white-space:pre-wrap;""> for i in [1, 2]:
   a -= 5</a><a style=""""></a></div></div>","1","1","1","99","for i in [1, 2]:
   a -= 5","1","1"
"","html-keyboard-response","76","199543","0.0-3.0-11.0-2.0-0.0","237","<div><div style=""""><a style=""white-space:pre-wrap;""> for i in [1, 2]:
   a -= 5</a><a style=""""></a></div></div>","backspace","backspace","1","99","for i in [1, 2]:
   a -= 5","backspace","2"
"","html-keyboard-response","77","201968","0.0-4.0-1.0","1908","<p style=""font-size: 25px;"">Please press space to start the next program<br>>>>>>></p>"," ","","","","","",""
"","html-keyboard-response","78","203823","0.0-4.0-2.0","1854","<div><div style="" font-size:25px; color:green;""><a style=""white-space:pre-wrap;""> a = 8</a><a style=""""></a></div></div>","","null","","46","a = 8","",""
"","html-keyboard-response","79","208703","0.0-4.0-4.0-0.0-0.0","4372","<div><div style=""""><a style=""white-space:pre-wrap;""> while a <= 17:
   a -= 2
   a += 6</a><a style=""""></a></div></div>","6","6","1","47","while a <= 17:
   a -= 2
   a += 6","6","0"
"","html-keyboard-response","80","210623","0.0-4.0-4.0-1.0-0.0","1403","<div><div style=""""><a style=""white-space:pre-wrap;""> while a <= 17:
   a -= 2
   a += 6</a><a style=""""></a></div></div>","12","12","1","47","while a <= 17:
   a -= 2
   a += 6","12","1"
"","html-keyboard-response","81","212408","0.0-4.0-4.0-2.0-0.0","1272","<div><div style=""""><a style=""white-space:pre-wrap;""> while a <= 17:
   a -= 2
   a += 6</a><a style=""""></a></div></div>","10","10","1","47","while a <= 17:
   a -= 2
   a += 6","10","2"
"","html-keyboard-response","82","214287","0.0-4.0-4.0-3.0-0.0","1363","<div><div style=""""><a style=""white-space:pre-wrap;""> while a <= 17:
   a -= 2
   a += 6</a><a style=""""></a></div></div>","16","16","1","47","while a <= 17:
   a -= 2
   a += 6","16","3"
"","html-keyboard-response","83","216023","0.0-4.0-4.0-4.0-0.0","1220","<div><div style=""""><a style=""white-space:pre-wrap;""> while a <= 17:
   a -= 2
   a += 6</a><a style=""""></a></div></div>","14","14","1","47","while a <= 17:
   a -= 2
   a += 6","14","4"
"","html-keyboard-response","84","218431","0.0-4.0-4.0-5.0-0.0","1904","<div><div style=""""><a style=""white-space:pre-wrap;""> while a <= 17:
   a -= 2
   a += 6</a><a style=""""></a></div></div>","20","20","1","47","while a <= 17:
   a -= 2
   a += 6","20","5"
"","html-keyboard-response","85","219215","0.0-4.0-4.0-6.0-0.0","274","<div><div style=""""><a style=""white-space:pre-wrap;""> while a <= 17:
   a -= 2
   a += 6</a><a style=""""></a></div></div>","backspace","backspace","1","47","while a <= 17:
   a -= 2
   a += 6","backspace","6"
"","html-keyboard-response","86","223808","0.0-4.0-5.0-0.0-0.0","4084","<div><div style=""""><a style=""white-space:pre-wrap;""> while a >= 8:
   a /= 2</a><a style=""""></a></div></div>","10","10","1","48","while a >= 8:
   a /= 2","10","0"
"","html-keyboard-response","87","225671","0.0-4.0-5.0-1.0-0.0","1351","<div><div style=""""><a style=""white-space:pre-wrap;""> while a >= 8:
   a /= 2</a><a style=""""></a></div></div>","5","5","1","48","while a >= 8:
   a /= 2","5","1"
"","html-keyboard-response","88","226423","0.0-4.0-5.0-2.0-0.0","237","<div><div style=""""><a style=""white-space:pre-wrap;""> while a >= 8:
   a /= 2</a><a style=""""></a></div></div>","backspace","backspace","1","48","while a >= 8:
   a /= 2","backspace","2"
"","html-keyboard-response","89","234336","0.0-4.0-6.0-0.0-0.0","7400","<div><div style=""""><a style=""white-space:pre-wrap;""> for i in [1, 2, 3]:
   a = round_up(a*1.5)</a><a style=""""></a></div></div>","8","8","1","49","for i in [1, 2, 3]:
   a = round_up(a*1.5)","8","0"
"","html-keyboard-response","90","239623","0.0-4.0-6.0-1.0-0.0","4771","<div><div style=""""><a style=""white-space:pre-wrap;""> for i in [1, 2, 3]:
   a = round_up(a*1.5)</a><a style=""""></a></div></div>","12","12","1","49","for i in [1, 2, 3]:
   a = round_up(a*1.5)","12","1"
"","html-keyboard-response","91","244143","0.0-4.0-6.0-2.0-0.0","4010","<div><div style=""""><a style=""white-space:pre-wrap;""> for i in [1, 2, 3]:
   a = round_up(a*1.5)</a><a style=""""></a></div></div>","18","18","1","49","for i in [1, 2, 3]:
   a = round_up(a*1.5)","18","2"
"","html-keyboard-response","92","244800","0.0-4.0-6.0-3.0-0.0","153","<div><div style=""""><a style=""white-space:pre-wrap;""> for i in [1, 2, 3]:
   a = round_up(a*1.5)</a><a style=""""></a></div></div>","backspace","backspace","1","49","for i in [1, 2, 3]:
   a = round_up(a*1.5)","backspace","3"
"","html-keyboard-response","93","249744","0.0-4.0-7.0-0.0-0.0","4427","<div><div style=""""><a style=""white-space:pre-wrap;""> while a >= 4:
   a = average(a,2)</a><a style=""""></a></div></div>","10","10","1","50","while a >= 4:
   a = average(a,2)","10","0"
"","html-keyboard-response","94","251287","0.0-4.0-7.0-1.0-0.0","1042","<div><div style=""""><a style=""white-space:pre-wrap;""> while a >= 4:
   a = average(a,2)</a><a style=""""></a></div></div>","6","6","1","50","while a >= 4:
   a = average(a,2)","6","1"
"","html-keyboard-response","95","254495","0.0-4.0-7.0-2.0-0.0","2699","<div><div style=""""><a style=""white-space:pre-wrap;""> while a >= 4:
   a = average(a,2)</a><a style=""""></a></div></div>","4","4","1","50","while a >= 4:
   a = average(a,2)","4","2"
"","html-keyboard-response","96","259240","0.0-4.0-7.0-3.0-0.0","4235","<div><div style=""""><a style=""white-space:pre-wrap;""> while a >= 4:
   a = average(a,2)</a><a style=""""></a></div></div>","3","3","1","50","while a >= 4:
   a = average(a,2)","3","3"
"","html-keyboard-response","97","259856","0.0-4.0-7.0-4.0-0.0","110","<div><div style=""""><a style=""white-space:pre-wrap;""> while a >= 4:
   a = average(a,2)</a><a style=""""></a></div></div>","backspace","backspace","1","50","while a >= 4:
   a = average(a,2)","backspace","4"
"","html-keyboard-response","98","262671","0.0-4.0-8.0-0.0-0.0","2303","<div><div style=""""><a style=""white-space:pre-wrap;""> while a <= 5:
   a += 7
   a /= 2</a><a style=""""></a></div></div>","10","10","1","51","while a <= 5:
   a += 7
   a /= 2","10","0"
"","html-keyboard-response","99","265103","0.0-4.0-8.0-1.0-0.0","1916","<div><div style=""""><a style=""white-space:pre-wrap;""> while a <= 5:
   a += 7
   a /= 2</a><a style=""""></a></div></div>","5","5","1","51","while a <= 5:
   a += 7
   a /= 2","5","1"
"","html-keyboard-response","100","270696","0.0-4.0-8.0-2.0-0.0","5077","<div><div style=""""><a style=""white-space:pre-wrap;""> while a <= 5:
   a += 7
   a /= 2</a><a style=""""></a></div></div>","12","12","1","51","while a <= 5:
   a += 7
   a /= 2","12","2"
"","html-keyboard-response","101","272599","0.0-4.0-8.0-3.0-0.0","1394","<div><div style=""""><a style=""white-space:pre-wrap;""> while a <= 5:
   a += 7
   a /= 2</a><a style=""""></a></div></div>","6","6","1","51","while a <= 5:
   a += 7
   a /= 2","6","3"
"","html-keyboard-response","102","276839","0.0-4.0-8.0-4.0-0.0","3724","<div><div style=""""><a style=""white-space:pre-wrap;""> while a <= 5:
   a += 7
   a /= 2</a><a style=""""></a></div></div>","backspace","backspace","1","51","while a <= 5:
   a += 7
   a /= 2","backspace","4"
"","html-keyboard-response","103","280079","0.0-4.0-9.0-0.0-0.0","2726","<div><div style=""""><a style=""white-space:pre-wrap;""> for i in [1, 2, 3, 4]:
   a += 3</a><a style=""""></a></div></div>","9","9","1","52","for i in [1, 2, 3, 4]:
   a += 3","9","0"
"","html-keyboard-response","104","282056","0.0-4.0-9.0-1.0-0.0","1464","<div><div style=""""><a style=""white-space:pre-wrap;""> for i in [1, 2, 3, 4]:
   a += 3</a><a style=""""></a></div></div>","12","12","1","52","for i in [1, 2, 3, 4]:
   a += 3","12","1"
"","html-keyboard-response","105","283295","0.0-4.0-9.0-2.0-0.0","728","<div><div style=""""><a style=""white-space:pre-wrap;""> for i in [1, 2, 3, 4]:
   a += 3</a><a style=""""></a></div></div>","15","15","1","52","for i in [1, 2, 3, 4]:
   a += 3","15","2"
"","html-keyboard-response","106","285391","0.0-4.0-9.0-3.0-0.0","1586","<div><div style=""""><a style=""white-space:pre-wrap;""> for i in [1, 2, 3, 4]:
   a += 3</a><a style=""""></a></div></div>","18","18","1","52","for i in [1, 2, 3, 4]:
   a += 3","18","3"
"","html-keyboard-response","107","286016","0.0-4.0-9.0-4.0-0.0","111","<div><div style=""""><a style=""white-space:pre-wrap;""> for i in [1, 2, 3, 4]:
   a += 3</a><a style=""""></a></div></div>","backspace","backspace","1","52","for i in [1, 2, 3, 4]:
   a += 3","backspace","4"
"","html-keyboard-response","108","288215","0.0-4.0-10.0-0.0-0.0","1683","<div><div style=""""><a style=""white-space:pre-wrap;""> while a >= 12:
   a /= 3
   a *= 2</a><a style=""""></a></div></div>","6","6","1","53","while a >= 12:
   a /= 3
   a *= 2","6","0"
"","html-keyboard-response","109","290223","0.0-4.0-10.0-1.0-0.0","1499","<div><div style=""""><a style=""white-space:pre-wrap;""> while a >= 12:
   a /= 3
   a *= 2</a><a style=""""></a></div></div>","12","12","1","53","while a >= 12:
   a /= 3
   a *= 2","12","1"
"","html-keyboard-response","110","295016","0.0-4.0-10.0-2.0-0.0","4288","<div><div style=""""><a style=""white-space:pre-wrap;""> while a >= 12:
   a /= 3
   a *= 2</a><a style=""""></a></div></div>","4","4","1","53","while a >= 12:
   a /= 3
   a *= 2","4","2"
"","html-keyboard-response","111","296224","0.0-4.0-10.0-3.0-0.0","704","<div><div style=""""><a style=""white-space:pre-wrap;""> while a >= 12:
   a /= 3
   a *= 2</a><a style=""""></a></div></div>","8","8","1","53","while a >= 12:
   a /= 3
   a *= 2","8","3"
"","html-keyboard-response","112","296959","0.0-4.0-10.0-4.0-0.0","222","<div><div style=""""><a style=""white-space:pre-wrap;""> while a >= 12:
   a /= 3
   a *= 2</a><a style=""""></a></div></div>","backspace","backspace","1","53","while a >= 12:
   a /= 3
   a *= 2","backspace","4"
"","html-keyboard-response","113","301983","0.0-4.0-11.0-0.0-0.0","4508","<div><div style=""""><a style=""white-space:pre-wrap;""> while a >= 3:
   a *= 2
   a -= 9</a><a style=""""></a></div></div>","16","16","1","54","while a >= 3:
   a *= 2
   a -= 9","16","0"
"","html-keyboard-response","114","306056","0.0-4.0-11.0-1.0-0.0","3569","<div><div style=""""><a style=""white-space:pre-wrap;""> while a >= 3:
   a *= 2
   a -= 9</a><a style=""""></a></div></div>","7","7","1","54","while a >= 3:
   a *= 2
   a -= 9","7","1"
"","html-keyboard-response","115","308231","0.0-4.0-11.0-2.0-0.0","1658","<div><div style=""""><a style=""white-space:pre-wrap;""> while a >= 3:
   a *= 2
   a -= 9</a><a style=""""></a></div></div>","14","14","1","54","while a >= 3:
   a *= 2
   a -= 9","14","2"
"","html-keyboard-response","116","310831","0.0-4.0-11.0-3.0-0.0","2092","<div><div style=""""><a style=""white-space:pre-wrap;""> while a >= 3:
   a *= 2
   a -= 9</a><a style=""""></a></div></div>","5","5","1","54","while a >= 3:
   a *= 2
   a -= 9","5","3"
"","html-keyboard-response","117","313295","0.0-4.0-11.0-4.0-0.0","1961","<div><div style=""""><a style=""white-space:pre-wrap;""> while a >= 3:
   a *= 2
   a -= 9</a><a style=""""></a></div></div>","10","10","1","54","while a >= 3:
   a *= 2
   a -= 9","10","4"
"","html-keyboard-response","118","314391","0.0-4.0-11.0-5.0-0.0","589","<div><div style=""""><a style=""white-space:pre-wrap;""> while a >= 3:
   a *= 2
   a -= 9</a><a style=""""></a></div></div>","1","1","1","54","while a >= 3:
   a *= 2
   a -= 9","1","5"
"","html-keyboard-response","119","315271","0.0-4.0-11.0-6.0-0.0","375","<div><div style=""""><a style=""white-space:pre-wrap;""> while a >= 3:
   a *= 2
   a -= 9</a><a style=""""></a></div></div>","backspace","backspace","1","54","while a >= 3:
   a *= 2
   a -= 9","backspace","6"
"","html-keyboard-response","120","398992","0.0-5.0-0.0-0.0","83203","<p style=""position:absolute; top:30%; font-size:25px; color:green;"" >Take a short break now</p>"," ","","","","","",""
"","html-keyboard-response","121","399815","0.0-5.0-1.0","821","<p style=""font-size: 25px;"">Please press space to start the next program<br>>>>>>></p>"," ","","","","","",""
"","html-keyboard-response","122","400967","0.0-5.0-2.0","1150","<div><div style="" font-size:25px; color:green;""><a style=""white-space:pre-wrap;""> a = 18</a><a style=""""></a></div></div>","","null","","19","a = 18","",""
"","html-keyboard-response","123","404903","0.0-5.0-4.0-0.0-0.0","3424","<div><div style=""""><a style=""white-space:pre-wrap;""> while a >= 10:
   a /= 3
   a *= 2</a><a style=""""></a></div></div>","6","6","1","20","while a >= 10:
   a /= 3
   a *= 2","6","0"
"","html-keyboard-response","124","406135","0.0-5.0-4.0-1.0-0.0","717","<div><div style=""""><a style=""white-space:pre-wrap;""> while a >= 10:
   a /= 3
   a *= 2</a><a style=""""></a></div></div>","12","12","1","20","while a >= 10:
   a /= 3
   a *= 2","12","1"
"","html-keyboard-response","125","407615","0.0-5.0-4.0-2.0-0.0","973","<div><div style=""""><a style=""white-space:pre-wrap;""> while a >= 10:
   a /= 3
   a *= 2</a><a style=""""></a></div></div>","4","4","1","20","while a >= 10:
   a /= 3
   a *= 2","4","2"
"","html-keyboard-response","126","409415","0.0-5.0-4.0-3.0-0.0","1294","<div><div style=""""><a style=""white-space:pre-wrap;""> while a >= 10:
   a /= 3
   a *= 2</a><a style=""""></a></div></div>","8","8","1","20","while a >= 10:
   a /= 3
   a *= 2","8","3"
"","html-keyboard-response","127","410423","0.0-5.0-4.0-4.0-0.0","503","<div><div style=""""><a style=""white-space:pre-wrap;""> while a >= 10:
   a /= 3
   a *= 2</a><a style=""""></a></div></div>","backspace","backspace","1","20","while a >= 10:
   a /= 3
   a *= 2","backspace","4"
"","html-keyboard-response","128","412935","0.0-5.0-5.0-0.0-0.0","1998","<div><div style=""""><a style=""white-space:pre-wrap;""> while a >= 2:
   a /= 2</a><a style=""""></a></div></div>","4","4","1","21","while a >= 2:
   a /= 2","4","0"
"","html-keyboard-response","129","414351","0.0-5.0-5.0-1.0-0.0","907","<div><div style=""""><a style=""white-space:pre-wrap;""> while a >= 2:
   a /= 2</a><a style=""""></a></div></div>","2","2","1","21","while a >= 2:
   a /= 2","2","1"
"","html-keyboard-response","130","414951","0.0-5.0-5.0-2.0-0.0","96","<div><div style=""""><a style=""white-space:pre-wrap;""> while a >= 2:
   a /= 2</a><a style=""""></a></div></div>","1","1","1","21","while a >= 2:
   a /= 2","1","2"
"","html-keyboard-response","131","415575","0.0-5.0-5.0-3.0-0.0","111","<div><div style=""""><a style=""white-space:pre-wrap;""> while a >= 2:
   a /= 2</a><a style=""""></a></div></div>","backspace","backspace","1","21","while a >= 2:
   a /= 2","backspace","3"
"","html-keyboard-response","132","418367","0.0-5.0-6.0-0.0-0.0","2277","<div><div style=""""><a style=""white-space:pre-wrap;""> for i in [1, 2, 3, 4]:
   a += 2</a><a style=""""></a></div></div>","3","3","1","22","for i in [1, 2, 3, 4]:
   a += 2","3","0"
"","html-keyboard-response","133","419527","0.0-5.0-6.0-1.0-0.0","653","<div><div style=""""><a style=""white-space:pre-wrap;""> for i in [1, 2, 3, 4]:
   a += 2</a><a style=""""></a></div></div>","5","5","1","22","for i in [1, 2, 3, 4]:
   a += 2","5","1"
"","html-keyboard-response","134","420607","0.0-5.0-6.0-2.0-0.0","575","<div><div style=""""><a style=""white-space:pre-wrap;""> for i in [1, 2, 3, 4]:
   a += 2</a><a style=""""></a></div></div>","7","7","1","22","for i in [1, 2, 3, 4]:
   a += 2","7","2"
"","html-keyboard-response","135","421231","0.0-5.0-6.0-3.0-0.0","113","<div><div style=""""><a style=""white-space:pre-wrap;""> for i in [1, 2, 3, 4]:
   a += 2</a><a style=""""></a></div></div>","9","9","1","22","for i in [1, 2, 3, 4]:
   a += 2","9","3"
"","html-keyboard-response","136","421951","0.0-5.0-6.0-4.0-0.0","205","<div><div style=""""><a style=""white-space:pre-wrap;""> for i in [1, 2, 3, 4]:
   a += 2</a><a style=""""></a></div></div>","backspace","backspace","1","22","for i in [1, 2, 3, 4]:
   a += 2","backspace","4"
"","html-keyboard-response","137","425855","0.0-5.0-7.0-0.0-0.0","3395","<div><div style=""""><a style=""white-space:pre-wrap;""> while a >= 6:
   a += 9
   a /= 3</a><a style=""""></a></div></div>","18","18","1","23","while a >= 6:
   a += 9
   a /= 3","18","0"
"","html-keyboard-response","138","426935","0.0-5.0-7.0-1.0-0.0","572","<div><div style=""""><a style=""white-space:pre-wrap;""> while a >= 6:
   a += 9
   a /= 3</a><a style=""""></a></div></div>","6","6","1","23","while a >= 6:
   a += 9
   a /= 3","6","1"
"","html-keyboard-response","139","431127","0.0-5.0-7.0-2.0-0.0","3687","<div><div style=""""><a style=""white-space:pre-wrap;""> while a >= 6:
   a += 9
   a /= 3</a><a style=""""></a></div></div>","15","15","1","23","while a >= 6:
   a += 9
   a /= 3","15","2"
"","html-keyboard-response","140","431919","0.0-5.0-7.0-3.0-0.0","287","<div><div style=""""><a style=""white-space:pre-wrap;""> while a >= 6:
   a += 9
   a /= 3</a><a style=""""></a></div></div>","5","5","1","23","while a >= 6:
   a += 9
   a /= 3","5","3"
"","html-keyboard-response","141","432663","0.0-5.0-7.0-4.0-0.0","235","<div><div style=""""><a style=""white-space:pre-wrap;""> while a >= 6:
   a += 9
   a /= 3</a><a style=""""></a></div></div>","backspace","backspace","1","23","while a >= 6:
   a += 9
   a /= 3","backspace","4"
"","html-keyboard-response","142","437455","0.0-5.0-8.0-0.0-0.0","4289","<div><div style=""""><a style=""white-space:pre-wrap;""> for i in [1, 2, 3]:
   a = round_down(a*1.5)</a><a style=""""></a></div></div>","7","7","1","24","for i in [1, 2, 3]:
   a = round_down(a*1.5)","7","0"
"","html-keyboard-response","143","441583","0.0-5.0-8.0-1.0-0.0","3612","<div><div style=""""><a style=""white-space:pre-wrap;""> for i in [1, 2, 3]:
   a = round_down(a*1.5)</a><a style=""""></a></div></div>","10","10","1","24","for i in [1, 2, 3]:
   a = round_down(a*1.5)","10","1"
"","html-keyboard-response","144","444767","0.0-5.0-8.0-2.0-0.0","2678","<div><div style=""""><a style=""white-space:pre-wrap;""> for i in [1, 2, 3]:
   a = round_down(a*1.5)</a><a style=""""></a></div></div>","15","15","1","24","for i in [1, 2, 3]:
   a = round_down(a*1.5)","15","2"
"","html-keyboard-response","145","445519","0.0-5.0-8.0-3.0-0.0","245","<div><div style=""""><a style=""white-space:pre-wrap;""> for i in [1, 2, 3]:
   a = round_down(a*1.5)</a><a style=""""></a></div></div>","backspace","backspace","1","24","for i in [1, 2, 3]:
   a = round_down(a*1.5)","backspace","3"
"","html-keyboard-response","146","450727","0.0-5.0-9.0-0.0-0.0","4703","<div><div style=""""><a style=""white-space:pre-wrap;""> for i in [1, 2]:
   a = average(a,3)</a><a style=""""></a></div></div>","9","9","1","25","for i in [1, 2]:
   a = average(a,3)","9","0"
"","html-keyboard-response","147","454719","0.0-5.0-9.0-1.0-0.0","3484","<div><div style=""""><a style=""white-space:pre-wrap;""> for i in [1, 2]:
   a = average(a,3)</a><a style=""""></a></div></div>","6","6","1","25","for i in [1, 2]:
   a = average(a,3)","6","1"
"","html-keyboard-response","148","455471","0.0-5.0-9.0-2.0-0.0","238","<div><div style=""""><a style=""white-space:pre-wrap;""> for i in [1, 2]:
   a = average(a,3)</a><a style=""""></a></div></div>","backspace","backspace","1","25","for i in [1, 2]:
   a = average(a,3)","backspace","2"
"","html-keyboard-response","149","458503","0.0-5.0-10.0-0.0-0.0","2518","<div><div style=""""><a style=""white-space:pre-wrap;""> while a <= 11:
   a *= 2
   a -= 5</a><a style=""""></a></div></div>","12","12","1","26","while a <= 11:
   a *= 2
   a -= 5","12","0"
"","html-keyboard-response","150","460183","0.0-5.0-10.0-1.0-0.0","1166","<div><div style=""""><a style=""white-space:pre-wrap;""> while a <= 11:
   a *= 2
   a -= 5</a><a style=""""></a></div></div>","7","7","1","26","while a <= 11:
   a *= 2
   a -= 5","7","1"
"","html-keyboard-response","151","464071","0.0-5.0-10.0-2.0-0.0","3380","<div><div style=""""><a style=""white-space:pre-wrap;""> while a <= 11:
   a *= 2
   a -= 5</a><a style=""""></a></div></div>","14","14","1","26","while a <= 11:
   a *= 2
   a -= 5","14","2"
"","html-keyboard-response","152","467312","0.0-5.0-10.0-3.0-0.0","2729","<div><div style=""""><a style=""white-space:pre-wrap;""> while a <= 11:
   a *= 2
   a -= 5</a><a style=""""></a></div></div>","9","9","1","26","while a <= 11:
   a *= 2
   a -= 5","9","3"
"","html-keyboard-response","153","470111","0.0-5.0-10.0-4.0-0.0","2291","<div><div style=""""><a style=""white-space:pre-wrap;""> while a <= 11:
   a *= 2
   a -= 5</a><a style=""""></a></div></div>","18","18","1","26","while a <= 11:
   a *= 2
   a -= 5","18","4"
"","html-keyboard-response","154","471696","0.0-5.0-10.0-5.0-0.0","1068","<div><div style=""""><a style=""white-space:pre-wrap;""> while a <= 11:
   a *= 2
   a -= 5</a><a style=""""></a></div></div>","13","13","1","26","while a <= 11:
   a *= 2
   a -= 5","13","5"
"","html-keyboard-response","155","472327","0.0-5.0-10.0-6.0-0.0","117","<div><div style=""""><a style=""white-space:pre-wrap;""> while a <= 11:
   a *= 2
   a -= 5</a><a style=""""></a></div></div>","backspace","backspace","1","26","while a <= 11:
   a *= 2
   a -= 5","backspace","6"
"","html-keyboard-response","156","476832","0.0-5.0-11.0-0.0-0.0","3997","<div><div style=""""><a style=""white-space:pre-wrap;""> while a >= 6:
   a += 4
   a -= 7</a><a style=""""></a></div></div>","15","17","0","27","while a >= 6:
   a += 4
   a -= 7","17","0"
"","html-keyboard-response","158","481879","0.0-5.0-11.0-1.0-0.0","1024","<div><div style=""""><a style=""white-space:pre-wrap;""> while a >= 6:
   a += 4
   a -= 7</a><a style=""""></a></div></div>","10","10","1","27","while a >= 6:
   a += 4
   a -= 7","10","1"
"","html-keyboard-response","159","484591","0.0-5.0-11.0-2.0-0.0","2195","<div><div style=""""><a style=""white-space:pre-wrap;""> while a >= 6:
   a += 4
   a -= 7</a><a style=""""></a></div></div>","14","14","1","27","while a >= 6:
   a += 4
   a -= 7","14","2"
"","html-keyboard-response","160","488327","0.0-5.0-11.0-3.0-0.0","3220","<div><div style=""""><a style=""white-space:pre-wrap;""> while a >= 6:
   a += 4
   a -= 7</a><a style=""""></a></div></div>","7","7","1","27","while a >= 6:
   a += 4
   a -= 7","7","3"
"","html-keyboard-response","161","491784","0.0-5.0-11.0-4.0-0.0","2946","<div><div style=""""><a style=""white-space:pre-wrap;""> while a >= 6:
   a += 4
   a -= 7</a><a style=""""></a></div></div>","11","11","1","27","while a >= 6:
   a += 4
   a -= 7","11","4"
"","html-keyboard-response","162","495671","0.0-5.0-11.0-5.0-0.0","3370","<div><div style=""""><a style=""white-space:pre-wrap;""> while a >= 6:
   a += 4
   a -= 7</a><a style=""""></a></div></div>","4","4","1","27","while a >= 6:
   a += 4
   a -= 7","4","5"
"","html-keyboard-response","163","496791","0.0-5.0-11.0-6.0-0.0","612","<div><div style=""""><a style=""white-space:pre-wrap;""> while a >= 6:
   a += 4
   a -= 7</a><a style=""""></a></div></div>","backspace","backspace","1","27","while a >= 6:
   a += 4
   a -= 7","backspace","6"
"","html-keyboard-response","164","498447","0.0-6.0-1.0","1141","<p style=""font-size: 25px;"">Please press space to start the next program<br>>>>>>></p>"," ","","","","","",""
"","html-keyboard-response","165","501568","0.0-6.0-2.0","3119","<div><div style="" font-size:25px; color:green;""><a style=""white-space:pre-wrap;""> a = 7</a><a style=""""></a></div></div>","","null","","10","a = 7","",""
"","html-keyboard-response","166","504552","0.0-6.0-4.0-0.0-0.0","2471","<div><div style=""""><a style=""white-space:pre-wrap;""> while a <= 14:
   a *= 2
   a -= 4</a><a style=""""></a></div></div>","14","14","1","11","while a <= 14:
   a *= 2
   a -= 4","14","0"
"","html-keyboard-response","167","505863","0.0-6.0-4.0-1.0-0.0","806","<div><div style=""""><a style=""white-space:pre-wrap;""> while a <= 14:
   a *= 2
   a -= 4</a><a style=""""></a></div></div>","10","10","1","11","while a <= 14:
   a *= 2
   a -= 4","10","1"
"","html-keyboard-response","168","508727","0.0-6.0-4.0-2.0-0.0","2356","<div><div style=""""><a style=""white-space:pre-wrap;""> while a <= 14:
   a *= 2
   a -= 4</a><a style=""""></a></div></div>","20","20","1","11","while a <= 14:
   a *= 2
   a -= 4","20","2"
"","html-keyboard-response","169","510143","0.0-6.0-4.0-3.0-0.0","899","<div><div style=""""><a style=""white-space:pre-wrap;""> while a <= 14:
   a *= 2
   a -= 4</a><a style=""""></a></div></div>","16","16","1","11","while a <= 14:
   a *= 2
   a -= 4","16","3"
"","html-keyboard-response","170","512176","0.0-6.0-4.0-4.0-0.0","1526","<div><div style=""""><a style=""white-space:pre-wrap;""> while a <= 14:
   a *= 2
   a -= 4</a><a style=""""></a></div></div>","backspace","backspace","1","11","while a <= 14:
   a *= 2
   a -= 4","backspace","4"
"","html-keyboard-response","171","515544","0.0-6.0-5.0-0.0-0.0","2854","<div><div style=""""><a style=""white-space:pre-wrap;""> for i in [1, 2, 3]:
   a /= 4
   a *= 2</a><a style=""""></a></div></div>","4","4","1","12","for i in [1, 2, 3]:
   a /= 4
   a *= 2","4","0"
"","html-keyboard-response","172","516791","0.0-6.0-5.0-1.0-0.0","735","<div><div style=""""><a style=""white-space:pre-wrap;""> for i in [1, 2, 3]:
   a /= 4
   a *= 2</a><a style=""""></a></div></div>","8","8","1","12","for i in [1, 2, 3]:
   a /= 4
   a *= 2","8","1"
"","html-keyboard-response","173","519239","0.0-6.0-5.0-2.0-0.0","1945","<div><div style=""""><a style=""white-space:pre-wrap;""> for i in [1, 2, 3]:
   a /= 4
   a *= 2</a><a style=""""></a></div></div>","2","2","1","12","for i in [1, 2, 3]:
   a /= 4
   a *= 2","2","2"
"","html-keyboard-response","174","520424","0.0-6.0-5.0-3.0-0.0","675","<div><div style=""""><a style=""white-space:pre-wrap;""> for i in [1, 2, 3]:
   a /= 4
   a *= 2</a><a style=""""></a></div></div>","4","4","1","12","for i in [1, 2, 3]:
   a /= 4
   a *= 2","4","3"
"","html-keyboard-response","175","522496","0.0-6.0-5.0-4.0-0.0","1561","<div><div style=""""><a style=""white-space:pre-wrap;""> for i in [1, 2, 3]:
   a /= 4
   a *= 2</a><a style=""""></a></div></div>","1","1","1","12","for i in [1, 2, 3]:
   a /= 4
   a *= 2","1","4"
"","html-keyboard-response","176","523472","0.0-6.0-5.0-5.0-0.0","466","<div><div style=""""><a style=""white-space:pre-wrap;""> for i in [1, 2, 3]:
   a /= 4
   a *= 2</a><a style=""""></a></div></div>","2","2","1","12","for i in [1, 2, 3]:
   a /= 4
   a *= 2","2","5"
"","html-keyboard-response","177","524303","0.0-6.0-5.0-6.0-0.0","328","<div><div style=""""><a style=""white-space:pre-wrap;""> for i in [1, 2, 3]:
   a /= 4
   a *= 2</a><a style=""""></a></div></div>","backspace","backspace","1","12","for i in [1, 2, 3]:
   a /= 4
   a *= 2","backspace","6"
"","html-keyboard-response","178","528224","0.0-6.0-6.0-0.0-0.0","3406","<div><div style=""""><a style=""white-space:pre-wrap;""> for i in [1, 2]:
   a = round_up(a*2.5)</a><a style=""""></a></div></div>","5","5","1","13","for i in [1, 2]:
   a = round_up(a*2.5)","5","0"
"","html-keyboard-response","179","534536","0.0-6.0-6.0-1.0-0.0","5801","<div><div style=""""><a style=""white-space:pre-wrap;""> for i in [1, 2]:
   a = round_up(a*2.5)</a><a style=""""></a></div></div>","13","13","1","13","for i in [1, 2]:
   a = round_up(a*2.5)","13","1"
"","html-keyboard-response","180","541232","0.0-6.0-6.0-2.0-0.0","6193","<div><div style=""""><a style=""white-space:pre-wrap;""> for i in [1, 2]:
   a = round_up(a*2.5)</a><a style=""""></a></div></div>","backspace","backspace","1","13","for i in [1, 2]:
   a = round_up(a*2.5)","backspace","2"
"","html-keyboard-response","181","546647","0.0-6.0-7.0-0.0-0.0","4897","<div><div style=""""><a style=""white-space:pre-wrap;""> for i in [1, 2, 3]:
   a = average(a,5)</a><a style=""""></a></div></div>","9","9","1","14","for i in [1, 2, 3]:
   a = average(a,5)","9","0"
"","html-keyboard-response","182","552048","0.0-6.0-7.0-1.0-0.0","4898","<div><div style=""""><a style=""white-space:pre-wrap;""> for i in [1, 2, 3]:
   a = average(a,5)</a><a style=""""></a></div></div>","7","7","1","14","for i in [1, 2, 3]:
   a = average(a,5)","7","1"
"","html-keyboard-response","183","555824","0.0-6.0-7.0-2.0-0.0","3266","<div><div style=""""><a style=""white-space:pre-wrap;""> for i in [1, 2, 3]:
   a = average(a,5)</a><a style=""""></a></div></div>","6","6","1","14","for i in [1, 2, 3]:
   a = average(a,5)","6","2"
"","html-keyboard-response","184","556624","0.0-6.0-7.0-3.0-0.0","298","<div><div style=""""><a style=""white-space:pre-wrap;""> for i in [1, 2, 3]:
   a = average(a,5)</a><a style=""""></a></div></div>","backspace","backspace","1","14","for i in [1, 2, 3]:
   a = average(a,5)","backspace","3"
"","html-keyboard-response","185","558872","0.0-6.0-8.0-0.0-0.0","1730","<div><div style=""""><a style=""white-space:pre-wrap;""> for i in [1, 2]:
   a += 2
   a /= 2</a><a style=""""></a></div></div>","8","8","1","15","for i in [1, 2]:
   a += 2
   a /= 2","8","0"
"","html-keyboard-response","186","559943","0.0-6.0-8.0-1.0-0.0","556","<div><div style=""""><a style=""white-space:pre-wrap;""> for i in [1, 2]:
   a += 2
   a /= 2</a><a style=""""></a></div></div>","4","4","1","15","for i in [1, 2]:
   a += 2
   a /= 2","4","1"
"","html-keyboard-response","187","561992","0.0-6.0-8.0-2.0-0.0","1536","<div><div style=""""><a style=""white-space:pre-wrap;""> for i in [1, 2]:
   a += 2
   a /= 2</a><a style=""""></a></div></div>","6","6","1","15","for i in [1, 2]:
   a += 2
   a /= 2","6","2"
"","html-keyboard-response","188","562936","0.0-6.0-8.0-3.0-0.0","427","<div><div style=""""><a style=""white-space:pre-wrap;""> for i in [1, 2]:
   a += 2
   a /= 2</a><a style=""""></a></div></div>","3","3","1","15","for i in [1, 2]:
   a += 2
   a /= 2","3","3"
"","html-keyboard-response","189","563888","0.0-6.0-8.0-4.0-0.0","436","<div><div style=""""><a style=""white-space:pre-wrap;""> for i in [1, 2]:
   a += 2
   a /= 2</a><a style=""""></a></div></div>","backspace","backspace","1","15","for i in [1, 2]:
   a += 2
   a /= 2","backspace","4"
"","html-keyboard-response","190","567999","0.0-6.0-9.0-0.0-0.0","3596","<div><div style=""""><a style=""white-space:pre-wrap;""> while a <= 9:
   a *= 2</a><a style=""""></a></div></div>","6","6","1","16","while a <= 9:
   a *= 2","6","0"
"","html-keyboard-response","191","571968","0.0-6.0-9.0-1.0-0.0","3461","<div><div style=""""><a style=""white-space:pre-wrap;""> while a <= 9:
   a *= 2</a><a style=""""></a></div></div>","12","12","1","16","while a <= 9:
   a *= 2","12","1"
"","html-keyboard-response","192","572775","0.0-6.0-9.0-2.0-0.0","291","<div><div style=""""><a style=""white-space:pre-wrap;""> while a <= 9:
   a *= 2</a><a style=""""></a></div></div>","backspace","backspace","1","16","while a <= 9:
   a *= 2","backspace","2"
"","html-keyboard-response","193","576768","0.0-6.0-10.0-0.0-0.0","3487","<div><div style=""""><a style=""white-space:pre-wrap;""> while a <= 14:
   a += 6
   a -= 4</a><a style=""""></a></div></div>","18","18","1","17","while a <= 14:
   a += 6
   a -= 4","18","0"
"","html-keyboard-response","194","578903","0.0-6.0-10.0-1.0-0.0","1626","<div><div style=""""><a style=""white-space:pre-wrap;""> while a <= 14:
   a += 6
   a -= 4</a><a style=""""></a></div></div>","14","14","1","17","while a <= 14:
   a += 6
   a -= 4","14","1"
"","html-keyboard-response","195","582879","0.0-6.0-10.0-2.0-0.0","3474","<div><div style=""""><a style=""white-space:pre-wrap;""> while a <= 14:
   a += 6
   a -= 4</a><a style=""""></a></div></div>","20","20","1","17","while a <= 14:
   a += 6
   a -= 4","20","2"
"","html-keyboard-response","196","583944","0.0-6.0-10.0-3.0-0.0","552","<div><div style=""""><a style=""white-space:pre-wrap;""> while a <= 14:
   a += 6
   a -= 4</a><a style=""""></a></div></div>","16","16","1","17","while a <= 14:
   a += 6
   a -= 4","16","3"
"","html-keyboard-response","197","585783","0.0-6.0-10.0-4.0-0.0","1325","<div><div style=""""><a style=""white-space:pre-wrap;""> while a <= 14:
   a += 6
   a -= 4</a><a style=""""></a></div></div>","backspace","backspace","1","17","while a <= 14:
   a += 6
   a -= 4","backspace","4"
"","html-keyboard-response","198","589336","0.0-6.0-11.0-0.0-0.0","3048","<div><div style=""""><a style=""white-space:pre-wrap;""> for i in [1, 2, 3, 4]:
   a -= 3</a><a style=""""></a></div></div>","13","13","1","18","for i in [1, 2, 3, 4]:
   a -= 3","13","0"
"","html-keyboard-response","199","590607","0.0-6.0-11.0-1.0-0.0","765","<div><div style=""""><a style=""white-space:pre-wrap;""> for i in [1, 2, 3, 4]:
   a -= 3</a><a style=""""></a></div></div>","10","10","1","18","for i in [1, 2, 3, 4]:
   a -= 3","10","1"
"","html-keyboard-response","200","591776","0.0-6.0-11.0-2.0-0.0","660","<div><div style=""""><a style=""white-space:pre-wrap;""> for i in [1, 2, 3, 4]:
   a -= 3</a><a style=""""></a></div></div>","7","7","1","18","for i in [1, 2, 3, 4]:
   a -= 3","7","2"
"","html-keyboard-response","201","593112","0.0-6.0-11.0-3.0-0.0","825","<div><div style=""""><a style=""white-space:pre-wrap;""> for i in [1, 2, 3, 4]:
   a -= 3</a><a style=""""></a></div></div>","4","4","1","18","for i in [1, 2, 3, 4]:
   a -= 3","4","3"
"","html-keyboard-response","202","593959","0.0-6.0-11.0-4.0-0.0","342","<div><div style=""""><a style=""white-space:pre-wrap;""> for i in [1, 2, 3, 4]:
   a -= 3</a><a style=""""></a></div></div>","backspace","backspace","1","18","for i in [1, 2, 3, 4]:
   a -= 3","backspace","4"
"","html-keyboard-response","203","596376","0.0-7.0-1.0","1911","<p style=""font-size: 25px;"">Please press space to start the next program<br>>>>>>></p>"," ","","","","","",""
"","html-keyboard-response","204","600032","0.0-7.0-2.0","3654","<div><div style="" font-size:25px; color:green;""><a style=""white-space:pre-wrap;""> a = 16</a><a style=""""></a></div></div>","","null","","73","a = 16","",""
"","html-keyboard-response","205","606640","0.0-7.0-4.0-0.0-0.0","6105","<div><div style=""""><a style=""white-space:pre-wrap;""> for i in [1, 2]:
   a /= 2</a><a style=""""></a></div></div>","8","8","1","74","for i in [1, 2]:
   a /= 2","8","0"
"","html-keyboard-response","206","609407","0.0-7.0-4.0-1.0-0.0","2262","<div><div style=""""><a style=""white-space:pre-wrap;""> for i in [1, 2]:
   a /= 2</a><a style=""""></a></div></div>","4","4","1","74","for i in [1, 2]:
   a /= 2","4","1"
"","html-keyboard-response","207","610400","0.0-7.0-4.0-2.0-0.0","479","<div><div style=""""><a style=""white-space:pre-wrap;""> for i in [1, 2]:
   a /= 2</a><a style=""""></a></div></div>","backspace","backspace","1","74","for i in [1, 2]:
   a /= 2","backspace","2"
"","html-keyboard-response","208","618607","0.0-7.0-5.0-0.0-0.0","7701","<div><div style=""""><a style=""white-space:pre-wrap;""> while a <= 11:
   a = round_up(a*1.5)</a><a style=""""></a></div></div>","6","6","1","75","while a <= 11:
   a = round_up(a*1.5)","6","0"
"","html-keyboard-response","209","621768","0.0-7.0-5.0-1.0-0.0","2653","<div><div style=""""><a style=""white-space:pre-wrap;""> while a <= 11:
   a = round_up(a*1.5)</a><a style=""""></a></div></div>","9","9","1","75","while a <= 11:
   a = round_up(a*1.5)","9","1"
"","html-keyboard-response","210","630128","0.0-7.0-5.0-2.0-0.0","7844","<div><div style=""""><a style=""white-space:pre-wrap;""> while a <= 11:
   a = round_up(a*1.5)</a><a style=""""></a></div></div>","14","14","1","75","while a <= 11:
   a = round_up(a*1.5)","14","2"
"","html-keyboard-response","211","631088","0.0-7.0-5.0-3.0-0.0","456","<div><div style=""""><a style=""white-space:pre-wrap;""> while a <= 11:
   a = round_up(a*1.5)</a><a style=""""></a></div></div>","backspace","backspace","1","75","while a <= 11:
   a = round_up(a*1.5)","backspace","3"
"","html-keyboard-response","212","633768","0.0-7.0-6.0-0.0-0.0","2166","<div><div style=""""><a style=""white-space:pre-wrap;""> while a >= 13:
   a += 5
   a -= 6</a><a style=""""></a></div></div>","19","19","1","76","while a >= 13:
   a += 5
   a -= 6","19","0"
"","html-keyboard-response","213","635256","0.0-7.0-6.0-1.0-0.0","974","<div><div style=""""><a style=""white-space:pre-wrap;""> while a >= 13:
   a += 5
   a -= 6</a><a style=""""></a></div></div>","13","13","1","76","while a >= 13:
   a += 5
   a -= 6","13","1"
"","html-keyboard-response","214","637720","0.0-7.0-6.0-2.0-0.0","1955","<div><div style=""""><a style=""white-space:pre-wrap;""> while a >= 13:
   a += 5
   a -= 6</a><a style=""""></a></div></div>","18","18","1","76","while a >= 13:
   a += 5
   a -= 6","18","2"
"","html-keyboard-response","215","640047","0.0-7.0-6.0-3.0-0.0","1820","<div><div style=""""><a style=""white-space:pre-wrap;""> while a >= 13:
   a += 5
   a -= 6</a><a style=""""></a></div></div>","12","12","1","76","while a >= 13:
   a += 5
   a -= 6","12","3"
"","html-keyboard-response","216","641007","0.0-7.0-6.0-4.0-0.0","451","<div><div style=""""><a style=""white-space:pre-wrap;""> while a >= 13:
   a += 5
   a -= 6</a><a style=""""></a></div></div>","backspace","backspace","1","76","while a >= 13:
   a += 5
   a -= 6","backspace","4"
"","html-keyboard-response","217","646223","0.0-7.0-7.0-0.0-0.0","4711","<div><div style=""""><a style=""white-space:pre-wrap;""> for i in [1, 2, 3]:
   a = average(a,4)</a><a style=""""></a></div></div>","8","8","1","77","for i in [1, 2, 3]:
   a = average(a,4)","8","0"
"","html-keyboard-response","218","649375","0.0-7.0-7.0-1.0-0.0","2644","<div><div style=""""><a style=""white-space:pre-wrap;""> for i in [1, 2, 3]:
   a = average(a,4)</a><a style=""""></a></div></div>","6","6","1","77","for i in [1, 2, 3]:
   a = average(a,4)","6","1"
"","html-keyboard-response","219","652639","0.0-7.0-7.0-2.0-0.0","2749","<div><div style=""""><a style=""white-space:pre-wrap;""> for i in [1, 2, 3]:
   a = average(a,4)</a><a style=""""></a></div></div>","5","5","1","77","for i in [1, 2, 3]:
   a = average(a,4)","5","2"
"","html-keyboard-response","220","653319","0.0-7.0-7.0-3.0-0.0","166","<div><div style=""""><a style=""white-space:pre-wrap;""> for i in [1, 2, 3]:
   a = average(a,4)</a><a style=""""></a></div></div>","backspace","backspace","1","77","for i in [1, 2, 3]:
   a = average(a,4)","backspace","3"
"","html-keyboard-response","221","655431","0.0-7.0-8.0-0.0-0.0","1605","<div><div style=""""><a style=""white-space:pre-wrap;""> for i in [1, 2]:
   a *= 3
   a -= 11</a><a style=""""></a></div></div>","15","15","1","78","for i in [1, 2]:
   a *= 3
   a -= 11","15","0"
"","html-keyboard-response","222","657511","0.0-7.0-8.0-1.0-0.0","1569","<div><div style=""""><a style=""white-space:pre-wrap;""> for i in [1, 2]:
   a *= 3
   a -= 11</a><a style=""""></a></div></div>","4","4","1","78","for i in [1, 2]:
   a *= 3
   a -= 11","4","1"
"","html-keyboard-response","223","660023","0.0-7.0-8.0-2.0-0.0","1999","<div><div style=""""><a style=""white-space:pre-wrap;""> for i in [1, 2]:
   a *= 3
   a -= 11</a><a style=""""></a></div></div>","12","12","1","78","for i in [1, 2]:
   a *= 3
   a -= 11","12","2"
"","html-keyboard-response","224","661055","0.0-7.0-8.0-3.0-0.0","524","<div><div style=""""><a style=""white-space:pre-wrap;""> for i in [1, 2]:
   a *= 3
   a -= 11</a><a style=""""></a></div></div>","1","1","1","78","for i in [1, 2]:
   a *= 3
   a -= 11","1","3"
"","html-keyboard-response","225","662007","0.0-7.0-8.0-4.0-0.0","448","<div><div style=""""><a style=""white-space:pre-wrap;""> for i in [1, 2]:
   a *= 3
   a -= 11</a><a style=""""></a></div></div>","backspace","backspace","1","78","for i in [1, 2]:
   a *= 3
   a -= 11","backspace","4"
"","html-keyboard-response","226","666663","0.0-7.0-9.0-0.0-0.0","4144","<div><div style=""""><a style=""white-space:pre-wrap;""> for i in [1, 2]:
   a *= 6
   a /= 2</a><a style=""""></a></div></div>","6","6","1","79","for i in [1, 2]:
   a *= 6
   a /= 2","6","0"
"","html-keyboard-response","227","667703","0.0-7.0-9.0-1.0-0.0","524","<div><div style=""""><a style=""white-space:pre-wrap;""> for i in [1, 2]:
   a *= 6
   a /= 2</a><a style=""""></a></div></div>","3","3","1","79","for i in [1, 2]:
   a *= 6
   a /= 2","3","1"
"","html-keyboard-response","228","670783","0.0-7.0-9.0-2.0-0.0","2571","<div><div style=""""><a style=""white-space:pre-wrap;""> for i in [1, 2]:
   a *= 6
   a /= 2</a><a style=""""></a></div></div>","18","18","1","79","for i in [1, 2]:
   a *= 6
   a /= 2","18","2"
"","html-keyboard-response","229","671783","0.0-7.0-9.0-3.0-0.0","490","<div><div style=""""><a style=""white-space:pre-wrap;""> for i in [1, 2]:
   a *= 6
   a /= 2</a><a style=""""></a></div></div>","9","9","1","79","for i in [1, 2]:
   a *= 6
   a /= 2","9","3"
"","html-keyboard-response","230","672759","0.0-7.0-9.0-4.0-0.0","469","<div><div style=""""><a style=""white-space:pre-wrap;""> for i in [1, 2]:
   a *= 6
   a /= 2</a><a style=""""></a></div></div>","backspace","backspace","1","79","for i in [1, 2]:
   a *= 6
   a /= 2","backspace","4"
"","html-keyboard-response","231","676343","0.0-7.0-10.0-0.0-0.0","3081","<div><div style=""""><a style=""white-space:pre-wrap;""> while a >= 7:
   a -= 2</a><a style=""""></a></div></div>","7","7","1","80","while a >= 7:
   a -= 2","7","0"
"","html-keyboard-response","232","677023","0.0-7.0-10.0-1.0-0.0","169","<div><div style=""""><a style=""white-space:pre-wrap;""> while a >= 7:
   a -= 2</a><a style=""""></a></div></div>","5","5","1","80","while a >= 7:
   a -= 2","5","1"
"","html-keyboard-response","233","677743","0.0-7.0-10.0-2.0-0.0","215","<div><div style=""""><a style=""white-space:pre-wrap;""> while a >= 7:
   a -= 2</a><a style=""""></a></div></div>","backspace","backspace","1","80","while a >= 7:
   a -= 2","backspace","2"
"","html-keyboard-response","234","684455","0.0-7.0-11.0-0.0-0.0","6205","<div><div style=""""><a style=""white-space:pre-wrap;""> while a <= 7:
   a += 9
   a /= 2</a><a style=""""></a></div></div>","14","14","1","81","while a <= 7:
   a += 9
   a /= 2","14","0"
"","html-keyboard-response","235","685855","0.0-7.0-11.0-1.0-0.0","886","<div><div style=""""><a style=""white-space:pre-wrap;""> while a <= 7:
   a += 9
   a /= 2</a><a style=""""></a></div></div>","7","7","1","81","while a <= 7:
   a += 9
   a /= 2","7","1"
"","html-keyboard-response","236","690151","0.0-7.0-11.0-2.0-0.0","3781","<div><div style=""""><a style=""white-space:pre-wrap;""> while a <= 7:
   a += 9
   a /= 2</a><a style=""""></a></div></div>","16","16","1","81","while a <= 7:
   a += 9
   a /= 2","16","2"
"","html-keyboard-response","237","691855","0.0-7.0-11.0-3.0-0.0","1188","<div><div style=""""><a style=""white-space:pre-wrap;""> while a <= 7:
   a += 9
   a /= 2</a><a style=""""></a></div></div>","8","8","1","81","while a <= 7:
   a += 9
   a /= 2","8","3"
"","html-keyboard-response","238","692943","0.0-7.0-11.0-4.0-0.0","584","<div><div style=""""><a style=""white-space:pre-wrap;""> while a <= 7:
   a += 9
   a /= 2</a><a style=""""></a></div></div>","backspace","backspace","1","81","while a <= 7:
   a += 9
   a /= 2","backspace","4"
"","html-keyboard-response","239","752992","0.0-8.0-0.0-0.0","59535","<p style=""position:absolute; top:30%; font-size:25px; color:green;"" >Take a short break now</p>"," ","","","","","",""
"","html-keyboard-response","240","753888","0.0-8.0-1.0","894","<p style=""font-size: 25px;"">Please press space to start the next program<br>>>>>>></p>"," ","","","","","",""
"","html-keyboard-response","241","754935","0.0-8.0-2.0","1046","<div><div style="" font-size:25px; color:green;""><a style=""white-space:pre-wrap;""> a = 7</a><a style=""""></a></div></div>","","null","","1","a = 7","",""
"","html-keyboard-response","242","760575","0.0-8.0-4.0-0.0-0.0","5134","<div><div style=""""><a style=""white-space:pre-wrap;""> for i in [1, 2]:
   a *= 2
   a -= 4</a><a style=""""></a></div></div>","14","14","1","2","for i in [1, 2]:
   a *= 2
   a -= 4","14","0"
"","html-keyboard-response","243","761583","0.0-8.0-4.0-1.0-0.0","501","<div><div style=""""><a style=""white-space:pre-wrap;""> for i in [1, 2]:
   a *= 2
   a -= 4</a><a style=""""></a></div></div>","10","10","1","2","for i in [1, 2]:
   a *= 2
   a -= 4","10","1"
"","html-keyboard-response","244","763543","0.0-8.0-4.0-2.0-0.0","1444","<div><div style=""""><a style=""white-space:pre-wrap;""> for i in [1, 2]:
   a *= 2
   a -= 4</a><a style=""""></a></div></div>","20","20","1","2","for i in [1, 2]:
   a *= 2
   a -= 4","20","2"
"","html-keyboard-response","245","764455","0.0-8.0-4.0-3.0-0.0","402","<div><div style=""""><a style=""white-space:pre-wrap;""> for i in [1, 2]:
   a *= 2
   a -= 4</a><a style=""""></a></div></div>","16","16","1","2","for i in [1, 2]:
   a *= 2
   a -= 4","16","3"
"","html-keyboard-response","246","765223","0.0-8.0-4.0-4.0-0.0","261","<div><div style=""""><a style=""white-space:pre-wrap;""> for i in [1, 2]:
   a *= 2
   a -= 4</a><a style=""""></a></div></div>","backspace","backspace","1","2","for i in [1, 2]:
   a *= 2
   a -= 4","backspace","4"
"","html-keyboard-response","247","768767","0.0-8.0-5.0-0.0-0.0","3038","<div><div style=""""><a style=""white-space:pre-wrap;""> for i in [1, 2, 3]:
   a /= 4
   a *= 2</a><a style=""""></a></div></div>","4","4","1","3","for i in [1, 2, 3]:
   a /= 4
   a *= 2","4","0"
"","html-keyboard-response","248","770343","0.0-8.0-5.0-1.0-0.0","1072","<div><div style=""""><a style=""white-space:pre-wrap;""> for i in [1, 2, 3]:
   a /= 4
   a *= 2</a><a style=""""></a></div></div>","8","8","1","3","for i in [1, 2, 3]:
   a /= 4
   a *= 2","8","1"
"","html-keyboard-response","249","772672","0.0-8.0-5.0-2.0-0.0","1812","<div><div style=""""><a style=""white-space:pre-wrap;""> for i in [1, 2, 3]:
   a /= 4
   a *= 2</a><a style=""""></a></div></div>","2","2","1","3","for i in [1, 2, 3]:
   a /= 4
   a *= 2","2","2"
"","html-keyboard-response","250","773648","0.0-8.0-5.0-3.0-0.0","460","<div><div style=""""><a style=""white-space:pre-wrap;""> for i in [1, 2, 3]:
   a /= 4
   a *= 2</a><a style=""""></a></div></div>","4","4","1","3","for i in [1, 2, 3]:
   a /= 4
   a *= 2","4","3"
"","html-keyboard-response","251","774943","0.0-8.0-5.0-4.0-0.0","784","<div><div style=""""><a style=""white-space:pre-wrap;""> for i in [1, 2, 3]:
   a /= 4
   a *= 2</a><a style=""""></a></div></div>","1","1","1","3","for i in [1, 2, 3]:
   a /= 4
   a *= 2","1","4"
"","html-keyboard-response","252","775815","0.0-8.0-5.0-5.0-0.0","360","<div><div style=""""><a style=""white-space:pre-wrap;""> for i in [1, 2, 3]:
   a /= 4
   a *= 2</a><a style=""""></a></div></div>","2","2","1","3","for i in [1, 2, 3]:
   a /= 4
   a *= 2","2","5"
"","html-keyboard-response","253","776599","0.0-8.0-5.0-6.0-0.0","271","<div><div style=""""><a style=""white-space:pre-wrap;""> for i in [1, 2, 3]:
   a /= 4
   a *= 2</a><a style=""""></a></div></div>","backspace","backspace","1","3","for i in [1, 2, 3]:
   a /= 4
   a *= 2","backspace","6"
"","html-keyboard-response","254","783095","0.0-8.0-6.0-0.0-0.0","5985","<div><div style=""""><a style=""white-space:pre-wrap;""> while a <= 6:
   a = round_up(a*2.5)</a><a style=""""></a></div></div>","6","5","0","4","while a <= 6:
   a = round_up(a*2.5)","5","0"
"","html-keyboard-response","256","791808","0.0-8.0-6.0-1.0-0.0","4683","<div><div style=""""><a style=""white-space:pre-wrap;""> while a <= 6:
   a = round_up(a*2.5)</a><a style=""""></a></div></div>","13","13","1","4","while a <= 6:
   a = round_up(a*2.5)","13","1"
"","html-keyboard-response","257","795191","0.0-8.0-6.0-2.0-0.0","2875","<div><div style=""""><a style=""white-space:pre-wrap;""> while a <= 6:
   a = round_up(a*2.5)</a><a style=""""></a></div></div>","backspace","backspace","1","4","while a <= 6:
   a = round_up(a*2.5)","backspace","2"
"","html-keyboard-response","258","804920","0.0-8.0-7.0-0.0-0.0","9223","<div><div style=""""><a style=""white-space:pre-wrap;""> for i in [1, 2, 3]:
   a = average(a,5)</a><a style=""""></a></div></div>","9","9","1","5","for i in [1, 2, 3]:
   a = average(a,5)","9","0"
"","html-keyboard-response","259","808007","0.0-8.0-7.0-1.0-0.0","2586","<div><div style=""""><a style=""white-space:pre-wrap;""> for i in [1, 2, 3]:
   a = average(a,5)</a><a style=""""></a></div></div>","7","7","1","5","for i in [1, 2, 3]:
   a = average(a,5)","7","1"
"","html-keyboard-response","260","810647","0.0-8.0-7.0-2.0-0.0","2130","<div><div style=""""><a style=""white-space:pre-wrap;""> for i in [1, 2, 3]:
   a = average(a,5)</a><a style=""""></a></div></div>","6","6","1","5","for i in [1, 2, 3]:
   a = average(a,5)","6","2"
"","html-keyboard-response","261","811479","0.0-8.0-7.0-3.0-0.0","326","<div><div style=""""><a style=""white-space:pre-wrap;""> for i in [1, 2, 3]:
   a = average(a,5)</a><a style=""""></a></div></div>","backspace","backspace","1","5","for i in [1, 2, 3]:
   a = average(a,5)","backspace","3"
"","html-keyboard-response","262","817856","0.0-8.0-8.0-0.0-0.0","5861","<div><div style=""""><a style=""white-space:pre-wrap;""> while a >= 4:
   a += 2
   a /= 2</a><a style=""""></a></div></div>","8","8","1","6","while a >= 4:
   a += 2
   a /= 2","8","0"
"","html-keyboard-response","263","819295","0.0-8.0-8.0-1.0-0.0","928","<div><div style=""""><a style=""white-space:pre-wrap;""> while a >= 4:
   a += 2
   a /= 2</a><a style=""""></a></div></div>","4","4","1","6","while a >= 4:
   a += 2
   a /= 2","4","1"
"","html-keyboard-response","264","823383","0.0-8.0-8.0-2.0-0.0","3575","<div><div style=""""><a style=""white-space:pre-wrap;""> while a >= 4:
   a += 2
   a /= 2</a><a style=""""></a></div></div>","6","6","1","6","while a >= 4:
   a += 2
   a /= 2","6","2"
"","html-keyboard-response","265","825143","0.0-8.0-8.0-3.0-0.0","1253","<div><div style=""""><a style=""white-space:pre-wrap;""> while a >= 4:
   a += 2
   a /= 2</a><a style=""""></a></div></div>","3","3","1","6","while a >= 4:
   a += 2
   a /= 2","3","3"
"","html-keyboard-response","266","825959","0.0-8.0-8.0-4.0-0.0","313","<div><div style=""""><a style=""white-space:pre-wrap;""> while a >= 4:
   a += 2
   a /= 2</a><a style=""""></a></div></div>","backspace","backspace","1","6","while a >= 4:
   a += 2
   a /= 2","backspace","4"
"","html-keyboard-response","267","828680","0.0-8.0-9.0-0.0-0.0","2208","<div><div style=""""><a style=""white-space:pre-wrap;""> while a <= 9:
   a *= 2</a><a style=""""></a></div></div>","6","6","1","7","while a <= 9:
   a *= 2","6","0"
"","html-keyboard-response","268","831959","0.0-8.0-9.0-1.0-0.0","2766","<div><div style=""""><a style=""white-space:pre-wrap;""> while a <= 9:
   a *= 2</a><a style=""""></a></div></div>","12","12","1","7","while a <= 9:
   a *= 2","12","1"
"","html-keyboard-response","269","832760","0.0-8.0-9.0-2.0-0.0","294","<div><div style=""""><a style=""white-space:pre-wrap;""> while a <= 9:
   a *= 2</a><a style=""""></a></div></div>","backspace","backspace","1","7","while a <= 9:
   a *= 2","backspace","2"
"","html-keyboard-response","270","840768","0.0-8.0-10.0-0.0-0.0","7502","<div><div style=""""><a style=""white-space:pre-wrap;""> for i in [1, 2]:
   a += 6
   a -= 4</a><a style=""""></a></div></div>","9","18","0","8","for i in [1, 2]:
   a += 6
   a -= 4","18","0"
"","html-keyboard-response","272","846976","0.0-8.0-10.0-1.0-0.0","2195","<div><div style=""""><a style=""white-space:pre-wrap;""> for i in [1, 2]:
   a += 6
   a -= 4</a><a style=""""></a></div></div>","14","14","1","8","for i in [1, 2]:
   a += 6
   a -= 4","14","1"
"","html-keyboard-response","273","850319","0.0-8.0-10.0-2.0-0.0","2836","<div><div style=""""><a style=""white-space:pre-wrap;""> for i in [1, 2]:
   a += 6
   a -= 4</a><a style=""""></a></div></div>","20","20","1","8","for i in [1, 2]:
   a += 6
   a -= 4","20","2"
"","html-keyboard-response","274","851184","0.0-8.0-10.0-3.0-0.0","355","<div><div style=""""><a style=""white-space:pre-wrap;""> for i in [1, 2]:
   a += 6
   a -= 4</a><a style=""""></a></div></div>","16","16","1","8","for i in [1, 2]:
   a += 6
   a -= 4","16","3"
"","html-keyboard-response","275","851943","0.0-8.0-10.0-4.0-0.0","251","<div><div style=""""><a style=""white-space:pre-wrap;""> for i in [1, 2]:
   a += 6
   a -= 4</a><a style=""""></a></div></div>","backspace","backspace","1","8","for i in [1, 2]:
   a += 6
   a -= 4","backspace","4"
"","html-keyboard-response","276","855095","0.0-8.0-11.0-0.0-0.0","2636","<div><div style=""""><a style=""white-space:pre-wrap;""> for i in [1, 2, 3, 4]:
   a -= 3</a><a style=""""></a></div></div>","13","13","1","9","for i in [1, 2, 3, 4]:
   a -= 3","13","0"
"","html-keyboard-response","277","855983","0.0-8.0-11.0-1.0-0.0","382","<div><div style=""""><a style=""white-space:pre-wrap;""> for i in [1, 2, 3, 4]:
   a -= 3</a><a style=""""></a></div></div>","10","10","1","9","for i in [1, 2, 3, 4]:
   a -= 3","10","1"
"","html-keyboard-response","278","856848","0.0-8.0-11.0-2.0-0.0","358","<div><div style=""""><a style=""white-space:pre-wrap;""> for i in [1, 2, 3, 4]:
   a -= 3</a><a style=""""></a></div></div>","7","7","1","9","for i in [1, 2, 3, 4]:
   a -= 3","7","2"
"","html-keyboard-response","279","857751","0.0-8.0-11.0-3.0-0.0","388","<div><div style=""""><a style=""white-space:pre-wrap;""> for i in [1, 2, 3, 4]:
   a -= 3</a><a style=""""></a></div></div>","4","4","1","9","for i in [1, 2, 3, 4]:
   a -= 3","4","3"
"","html-keyboard-response","280","858615","0.0-8.0-11.0-4.0-0.0","360","<div><div style=""""><a style=""white-space:pre-wrap;""> for i in [1, 2, 3, 4]:
   a -= 3</a><a style=""""></a></div></div>","backspace","backspace","1","9","for i in [1, 2, 3, 4]:
   a -= 3","backspace","4"
"","html-keyboard-response","281","860151","0.0-9.0-1.0","1033","<p style=""font-size: 25px;"">Please press space to start the next program<br>>>>>>></p>"," ","","","","","",""
"","html-keyboard-response","282","863576","0.0-9.0-2.0","3423","<div><div style="" font-size:25px; color:green;""><a style=""white-space:pre-wrap;""> a = 18</a><a style=""""></a></div></div>","","null","","28","a = 18","",""
"","html-keyboard-response","283","866887","0.0-9.0-4.0-0.0-0.0","2804","<div><div style=""""><a style=""white-space:pre-wrap;""> for i in [1, 2]:
   a /= 3
   a *= 2</a><a style=""""></a></div></div>","6","6","1","29","for i in [1, 2]:
   a /= 3
   a *= 2","6","0"
"","html-keyboard-response","284","869919","0.0-9.0-4.0-1.0-0.0","2516","<div><div style=""""><a style=""white-space:pre-wrap;""> for i in [1, 2]:
   a /= 3
   a *= 2</a><a style=""""></a></div></div>","13","12","0","29","for i in [1, 2]:
   a /= 3
   a *= 2","12","1"
"","html-keyboard-response","286","875136","0.0-9.0-4.0-2.0-0.0","1182","<div><div style=""""><a style=""white-space:pre-wrap;""> for i in [1, 2]:
   a /= 3
   a *= 2</a><a style=""""></a></div></div>","4","4","1","29","for i in [1, 2]:
   a /= 3
   a *= 2","4","2"
"","html-keyboard-response","287","876783","0.0-9.0-4.0-3.0-0.0","1137","<div><div style=""""><a style=""white-space:pre-wrap;""> for i in [1, 2]:
   a /= 3
   a *= 2</a><a style=""""></a></div></div>","8","8","1","29","for i in [1, 2]:
   a /= 3
   a *= 2","8","3"
"","html-keyboard-response","288","878007","0.0-9.0-4.0-4.0-0.0","719","<div><div style=""""><a style=""white-space:pre-wrap;""> for i in [1, 2]:
   a /= 3
   a *= 2</a><a style=""""></a></div></div>","backspace","backspace","1","29","for i in [1, 2]:
   a /= 3
   a *= 2","backspace","4"
"","html-keyboard-response","289","885871","0.0-9.0-5.0-0.0-0.0","7361","<div><div style=""""><a style=""white-space:pre-wrap;""> while a >= 2:
   a /= 2</a><a style=""""></a></div></div>","6","4","0","30","while a >= 2:
   a /= 2","4","0"
"","html-keyboard-response","291","892615","0.0-9.0-5.0-1.0-0.0","2714","<div><div style=""""><a style=""white-space:pre-wrap;""> while a >= 2:
   a /= 2</a><a style=""""></a></div></div>","2","2","1","30","while a >= 2:
   a /= 2","2","1"
"","html-keyboard-response","292","893567","0.0-9.0-5.0-2.0-0.0","442","<div><div style=""""><a style=""white-space:pre-wrap;""> while a >= 2:
   a /= 2</a><a style=""""></a></div></div>","1","1","1","30","while a >= 2:
   a /= 2","1","2"
"","html-keyboard-response","293","894463","0.0-9.0-5.0-3.0-0.0","378","<div><div style=""""><a style=""white-space:pre-wrap;""> while a >= 2:
   a /= 2</a><a style=""""></a></div></div>","backspace","backspace","1","30","while a >= 2:
   a /= 2","backspace","3"
"","html-keyboard-response","294","897655","0.0-9.0-6.0-0.0-0.0","2678","<div><div style=""""><a style=""white-space:pre-wrap;""> while a <= 7:
   a += 2</a><a style=""""></a></div></div>","3","3","1","31","while a <= 7:
   a += 2","3","0"
"","html-keyboard-response","295","899239","0.0-9.0-6.0-1.0-0.0","1078","<div><div style=""""><a style=""white-space:pre-wrap;""> while a <= 7:
   a += 2</a><a style=""""></a></div></div>","5","5","1","31","while a <= 7:
   a += 2","5","1"
"","html-keyboard-response","296","900143","0.0-9.0-6.0-2.0-0.0","395","<div><div style=""""><a style=""white-space:pre-wrap;""> while a <= 7:
   a += 2</a><a style=""""></a></div></div>","7","7","1","31","while a <= 7:
   a += 2","7","2"
"","html-keyboard-response","297","901327","0.0-9.0-6.0-3.0-0.0","672","<div><div style=""""><a style=""white-space:pre-wrap;""> while a <= 7:
   a += 2</a><a style=""""></a></div></div>","9","9","1","31","while a <= 7:
   a += 2","9","3"
"","html-keyboard-response","298","902247","0.0-9.0-6.0-4.0-0.0","404","<div><div style=""""><a style=""white-space:pre-wrap;""> while a <= 7:
   a += 2</a><a style=""""></a></div></div>","backspace","backspace","1","31","while a <= 7:
   a += 2","backspace","4"
"","html-keyboard-response","299","905775","0.0-9.0-7.0-0.0-0.0","3026","<div><div style=""""><a style=""white-space:pre-wrap;""> while a >= 6:
   a += 9
   a /= 3</a><a style=""""></a></div></div>","18","18","1","32","while a >= 6:
   a += 9
   a /= 3","18","0"
"","html-keyboard-response","300","907639","0.0-9.0-7.0-1.0-0.0","1356","<div><div style=""""><a style=""white-space:pre-wrap;""> while a >= 6:
   a += 9
   a /= 3</a><a style=""""></a></div></div>","6","6","1","32","while a >= 6:
   a += 9
   a /= 3","6","1"
"","html-keyboard-response","301","910679","0.0-9.0-7.0-2.0-0.0","2535","<div><div style=""""><a style=""white-space:pre-wrap;""> while a >= 6:
   a += 9
   a /= 3</a><a style=""""></a></div></div>","15","15","1","32","while a >= 6:
   a += 9
   a /= 3","15","2"
"","html-keyboard-response","302","912095","0.0-9.0-7.0-3.0-0.0","906","<div><div style=""""><a style=""white-space:pre-wrap;""> while a >= 6:
   a += 9
   a /= 3</a><a style=""""></a></div></div>","5","5","1","32","while a >= 6:
   a += 9
   a /= 3","5","3"
"","html-keyboard-response","303","912839","0.0-9.0-7.0-4.0-0.0","226","<div><div style=""""><a style=""white-space:pre-wrap;""> while a >= 6:
   a += 9
   a /= 3</a><a style=""""></a></div></div>","backspace","backspace","1","32","while a >= 6:
   a += 9
   a /= 3","backspace","4"
"","html-keyboard-response","304","919031","0.0-9.0-8.0-0.0-0.0","5682","<div><div style=""""><a style=""white-space:pre-wrap;""> while a <= 11:
   a = round_down(a*1.5)</a><a style=""""></a></div></div>","7","7","1","33","while a <= 11:
   a = round_down(a*1.5)","7","0"
"","html-keyboard-response","305","929055","0.0-9.0-8.0-1.0-0.0","9510","<div><div style=""""><a style=""white-space:pre-wrap;""> while a <= 11:
   a = round_down(a*1.5)</a><a style=""""></a></div></div>","11","10","0","33","while a <= 11:
   a = round_down(a*1.5)","10","1"
"","html-keyboard-response","307","936311","0.0-9.0-8.0-2.0-0.0","3235","<div><div style=""""><a style=""white-space:pre-wrap;""> while a <= 11:
   a = round_down(a*1.5)</a><a style=""""></a></div></div>","15","15","1","33","while a <= 11:
   a = round_down(a*1.5)","15","2"
"","html-keyboard-response","308","937223","0.0-9.0-8.0-3.0-0.0","396","<div><div style=""""><a style=""white-space:pre-wrap;""> while a <= 11:
   a = round_down(a*1.5)</a><a style=""""></a></div></div>","backspace","backspace","1","33","while a <= 11:
   a = round_down(a*1.5)","backspace","3"
"","html-keyboard-response","309","942472","0.0-9.0-9.0-0.0-0.0","4738","<div><div style=""""><a style=""white-space:pre-wrap;""> for i in [1, 2]:
   a = average(a,3)</a><a style=""""></a></div></div>","9","9","1","34","for i in [1, 2]:
   a = average(a,3)","9","0"
"","html-keyboard-response","310","945295","0.0-9.0-9.0-1.0-0.0","2316","<div><div style=""""><a style=""white-space:pre-wrap;""> for i in [1, 2]:
   a = average(a,3)</a><a style=""""></a></div></div>","6","6","1","34","for i in [1, 2]:
   a = average(a,3)","6","1"
"","html-keyboard-response","311","946015","0.0-9.0-9.0-2.0-0.0","216","<div><div style=""""><a style=""white-space:pre-wrap;""> for i in [1, 2]:
   a = average(a,3)</a><a style=""""></a></div></div>","backspace","backspace","1","34","for i in [1, 2]:
   a = average(a,3)","backspace","2"
"","html-keyboard-response","312","948214","0.0-9.0-10.0-0.0-0.0","1684","<div><div style=""""><a style=""white-space:pre-wrap;""> for i in [1, 2, 3]:
   a *= 2
   a -= 5</a><a style=""""></a></div></div>","12","12","1","35","for i in [1, 2, 3]:
   a *= 2
   a -= 5","12","0"
"","html-keyboard-response","313","949719","0.0-9.0-10.0-1.0-0.0","993","<div><div style=""""><a style=""white-space:pre-wrap;""> for i in [1, 2, 3]:
   a *= 2
   a -= 5</a><a style=""""></a></div></div>","7","7","1","35","for i in [1, 2, 3]:
   a *= 2
   a -= 5","7","1"
"","html-keyboard-response","314","954088","0.0-9.0-10.0-2.0-0.0","3854","<div><div style=""""><a style=""white-space:pre-wrap;""> for i in [1, 2, 3]:
   a *= 2
   a -= 5</a><a style=""""></a></div></div>","14","14","1","35","for i in [1, 2, 3]:
   a *= 2
   a -= 5","14","2"
"","html-keyboard-response","315","955967","0.0-9.0-10.0-3.0-0.0","1370","<div><div style=""""><a style=""white-space:pre-wrap;""> for i in [1, 2, 3]:
   a *= 2
   a -= 5</a><a style=""""></a></div></div>","9","9","1","35","for i in [1, 2, 3]:
   a *= 2
   a -= 5","9","3"
"","html-keyboard-response","316","957983","0.0-9.0-10.0-4.0-0.0","1506","<div><div style=""""><a style=""white-space:pre-wrap;""> for i in [1, 2, 3]:
   a *= 2
   a -= 5</a><a style=""""></a></div></div>","18","18","1","35","for i in [1, 2, 3]:
   a *= 2
   a -= 5","18","4"
"","html-keyboard-response","317","958943","0.0-9.0-10.0-5.0-0.0","443","<div><div style=""""><a style=""white-space:pre-wrap;""> for i in [1, 2, 3]:
   a *= 2
   a -= 5</a><a style=""""></a></div></div>","13","13","1","35","for i in [1, 2, 3]:
   a *= 2
   a -= 5","13","5"
"","html-keyboard-response","318","959727","0.0-9.0-10.0-6.0-0.0","275","<div><div style=""""><a style=""white-space:pre-wrap;""> for i in [1, 2, 3]:
   a *= 2
   a -= 5</a><a style=""""></a></div></div>","backspace","backspace","1","35","for i in [1, 2, 3]:
   a *= 2
   a -= 5","backspace","6"
"","html-keyboard-response","319","962935","0.0-9.0-11.0-0.0-0.0","2702","<div><div style=""""><a style=""white-space:pre-wrap;""> while a >= 6:
   a += 4
   a -= 7</a><a style=""""></a></div></div>","17","17","1","36","while a >= 6:
   a += 4
   a -= 7","17","0"
"","html-keyboard-response","320","964112","0.0-9.0-11.0-1.0-0.0","674","<div><div style=""""><a style=""white-space:pre-wrap;""> while a >= 6:
   a += 4
   a -= 7</a><a style=""""></a></div></div>","10","10","1","36","while a >= 6:
   a += 4
   a -= 7","10","1"
"","html-keyboard-response","321","966343","0.0-9.0-11.0-2.0-0.0","1715","<div><div style=""""><a style=""white-space:pre-wrap;""> while a >= 6:
   a += 4
   a -= 7</a><a style=""""></a></div></div>","14","14","1","36","while a >= 6:
   a += 4
   a -= 7","14","2"
"","html-keyboard-response","322","969167","0.0-9.0-11.0-3.0-0.0","2310","<div><div style=""""><a style=""white-space:pre-wrap;""> while a >= 6:
   a += 4
   a -= 7</a><a style=""""></a></div></div>","7","7","1","36","while a >= 6:
   a += 4
   a -= 7","7","3"
"","html-keyboard-response","323","974039","0.0-9.0-11.0-4.0-0.0","4365","<div><div style=""""><a style=""white-space:pre-wrap;""> while a >= 6:
   a += 4
   a -= 7</a><a style=""""></a></div></div>","11","11","1","36","while a >= 6:
   a += 4
   a -= 7","11","4"
"","html-keyboard-response","324","980656","0.0-9.0-11.0-5.0-0.0","6108","<div><div style=""""><a style=""white-space:pre-wrap;""> while a >= 6:
   a += 4
   a -= 7</a><a style=""""></a></div></div>","4","4","1","36","while a >= 6:
   a += 4
   a -= 7","4","5"
"","html-keyboard-response","325","981535","0.0-9.0-11.0-6.0-0.0","369","<div><div style=""""><a style=""white-space:pre-wrap;""> while a >= 6:
   a += 4
   a -= 7</a><a style=""""></a></div></div>","backspace","backspace","1","36","while a >= 6:
   a += 4
   a -= 7","backspace","6"
"","html-keyboard-response","326","986511","0.0-10.0-1.0","4466","<p style=""font-size: 25px;"">Please press space to start the next program<br>>>>>>></p>"," ","","","","","",""
"","html-keyboard-response","327","988622","0.0-10.0-2.0","2109","<div><div style="" font-size:25px; color:green;""><a style=""white-space:pre-wrap;""> a = 8</a><a style=""""></a></div></div>","","null","","37","a = 8","",""
"","html-keyboard-response","328","991640","0.0-10.0-4.0-0.0-0.0","2505","<div><div style=""""><a style=""white-space:pre-wrap;""> for i in [1, 2, 3]:
   a -= 2
   a += 6</a><a style=""""></a></div></div>","6","6","1","38","for i in [1, 2, 3]:
   a -= 2
   a += 6","6","0"
"","html-keyboard-response","329","992639","0.0-10.0-4.0-1.0-0.0","487","<div><div style=""""><a style=""white-space:pre-wrap;""> for i in [1, 2, 3]:
   a -= 2
   a += 6</a><a style=""""></a></div></div>","12","12","1","38","for i in [1, 2, 3]:
   a -= 2
   a += 6","12","1"
"","html-keyboard-response","330","994367","0.0-10.0-4.0-2.0-0.0","1215","<div><div style=""""><a style=""white-space:pre-wrap;""> for i in [1, 2, 3]:
   a -= 2
   a += 6</a><a style=""""></a></div></div>","10","10","1","38","for i in [1, 2, 3]:
   a -= 2
   a += 6","10","2"
"","html-keyboard-response","331","996591","0.0-10.0-4.0-3.0-0.0","1721","<div><div style=""""><a style=""white-space:pre-wrap;""> for i in [1, 2, 3]:
   a -= 2
   a += 6</a><a style=""""></a></div></div>","16","16","1","38","for i in [1, 2, 3]:
   a -= 2
   a += 6","16","3"
"","html-keyboard-response","332","998151","0.0-10.0-4.0-4.0-0.0","1047","<div><div style=""""><a style=""white-space:pre-wrap;""> for i in [1, 2, 3]:
   a -= 2
   a += 6</a><a style=""""></a></div></div>","14","14","1","38","for i in [1, 2, 3]:
   a -= 2
   a += 6","14","4"
"","html-keyboard-response","333","1001176","0.0-10.0-4.0-5.0-0.0","2518","<div><div style=""""><a style=""white-space:pre-wrap;""> for i in [1, 2, 3]:
   a -= 2
   a += 6</a><a style=""""></a></div></div>","20","20","1","38","for i in [1, 2, 3]:
   a -= 2
   a += 6","20","5"
"","html-keyboard-response","334","1001823","0.0-10.0-4.0-6.0-0.0","142","<div><div style=""""><a style=""white-space:pre-wrap;""> for i in [1, 2, 3]:
   a -= 2
   a += 6</a><a style=""""></a></div></div>","backspace","backspace","1","38","for i in [1, 2, 3]:
   a -= 2
   a += 6","backspace","6"
"","html-keyboard-response","335","1004943","0.0-10.0-5.0-0.0-0.0","2605","<div><div style=""""><a style=""white-space:pre-wrap;""> while a >= 8:
   a /= 2</a><a style=""""></a></div></div>","10","10","1","39","while a >= 8:
   a /= 2","10","0"
"","html-keyboard-response","336","1006247","0.0-10.0-5.0-1.0-0.0","795","<div><div style=""""><a style=""white-space:pre-wrap;""> while a >= 8:
   a /= 2</a><a style=""""></a></div></div>","5","5","1","39","while a >= 8:
   a /= 2","5","1"
"","html-keyboard-response","337","1007071","0.0-10.0-5.0-2.0-0.0","312","<div><div style=""""><a style=""white-space:pre-wrap;""> while a >= 8:
   a /= 2</a><a style=""""></a></div></div>","backspace","backspace","1","39","while a >= 8:
   a /= 2","backspace","2"
"","html-keyboard-response","338","1012384","0.0-10.0-6.0-0.0-0.0","4809","<div><div style=""""><a style=""white-space:pre-wrap;""> while a <= 15:
   a = round_up(a*1.5)</a><a style=""""></a></div></div>","8","8","1","40","while a <= 15:
   a = round_up(a*1.5)","8","0"
"","html-keyboard-response","339","1015631","0.0-10.0-6.0-1.0-0.0","2733","<div><div style=""""><a style=""white-space:pre-wrap;""> while a <= 15:
   a = round_up(a*1.5)</a><a style=""""></a></div></div>","12","12","1","40","while a <= 15:
   a = round_up(a*1.5)","12","1"
"","html-keyboard-response","340","1024592","0.0-10.0-6.0-2.0-0.0","8442","<div><div style=""""><a style=""white-space:pre-wrap;""> while a <= 15:
   a = round_up(a*1.5)</a><a style=""""></a></div></div>","100","18","0","40","while a <= 15:
   a = round_up(a*1.5)","18","2"
"","html-keyboard-response","342","1029399","0.0-10.0-6.0-3.0-0.0","797","<div><div style=""""><a style=""white-space:pre-wrap;""> while a <= 15:
   a = round_up(a*1.5)</a><a style=""""></a></div></div>","backspace","backspace","1","40","while a <= 15:
   a = round_up(a*1.5)","backspace","3"
"","html-keyboard-response","343","1037544","0.0-10.0-7.0-0.0-0.0","7634","<div><div style=""""><a style=""white-space:pre-wrap;""> while a >= 4:
   a = average(a,2)</a><a style=""""></a></div></div>","10","10","1","41","while a >= 4:
   a = average(a,2)","10","0"
"","html-keyboard-response","344","1039790","0.0-10.0-7.0-1.0-0.0","1736","<div><div style=""""><a style=""white-space:pre-wrap;""> while a >= 4:
   a = average(a,2)</a><a style=""""></a></div></div>","6","6","1","41","while a >= 4:
   a = average(a,2)","6","1"
"","html-keyboard-response","345","1041927","0.0-10.0-7.0-2.0-0.0","1635","<div><div style=""""><a style=""white-space:pre-wrap;""> while a >= 4:
   a = average(a,2)</a><a style=""""></a></div></div>","4","4","1","41","while a >= 4:
   a = average(a,2)","4","2"
"","html-keyboard-response","346","1044151","0.0-10.0-7.0-3.0-0.0","1719","<div><div style=""""><a style=""white-space:pre-wrap;""> while a >= 4:
   a = average(a,2)</a><a style=""""></a></div></div>","3","3","1","41","while a >= 4:
   a = average(a,2)","3","3"
"","html-keyboard-response","347","1044887","0.0-10.0-7.0-4.0-0.0","229","<div><div style=""""><a style=""white-space:pre-wrap;""> while a >= 4:
   a = average(a,2)</a><a style=""""></a></div></div>","backspace","backspace","1","41","while a >= 4:
   a = average(a,2)","backspace","4"
"","html-keyboard-response","348","1047151","0.0-10.0-8.0-0.0-0.0","1756","<div><div style=""""><a style=""white-space:pre-wrap;""> for i in [1, 2]:
   a += 7
   a /= 2</a><a style=""""></a></div></div>","10","10","1","42","for i in [1, 2]:
   a += 7
   a /= 2","10","0"
"","html-keyboard-response","349","1048224","0.0-10.0-8.0-1.0-0.0","566","<div><div style=""""><a style=""white-space:pre-wrap;""> for i in [1, 2]:
   a += 7
   a /= 2</a><a style=""""></a></div></div>","5","5","1","42","for i in [1, 2]:
   a += 7
   a /= 2","5","1"
"","html-keyboard-response","350","1053263","0.0-10.0-8.0-2.0-0.0","4526","<div><div style=""""><a style=""white-space:pre-wrap;""> for i in [1, 2]:
   a += 7
   a /= 2</a><a style=""""></a></div></div>","12","12","1","42","for i in [1, 2]:
   a += 7
   a /= 2","12","2"
"","html-keyboard-response","351","1055839","0.0-10.0-8.0-3.0-0.0","2073","<div><div style=""""><a style=""white-space:pre-wrap;""> for i in [1, 2]:
   a += 7
   a /= 2</a><a style=""""></a></div></div>","6","6","1","42","for i in [1, 2]:
   a += 7
   a /= 2","6","3"
"","html-keyboard-response","352","1056463","0.0-10.0-8.0-4.0-0.0","113","<div><div style=""""><a style=""white-space:pre-wrap;""> for i in [1, 2]:
   a += 7
   a /= 2</a><a style=""""></a></div></div>","backspace","backspace","1","42","for i in [1, 2]:
   a += 7
   a /= 2","backspace","4"
"","html-keyboard-response","353","1059263","0.0-10.0-9.0-0.0-0.0","2288","<div><div style=""""><a style=""white-space:pre-wrap;""> for i in [1, 2, 3, 4]:
   a += 3</a><a style=""""></a></div></div>","9","9","1","43","for i in [1, 2, 3, 4]:
   a += 3","9","0"
"","html-keyboard-response","354","1060807","0.0-10.0-9.0-1.0-0.0","1035","<div><div style=""""><a style=""white-space:pre-wrap;""> for i in [1, 2, 3, 4]:
   a += 3</a><a style=""""></a></div></div>","12","12","1","43","for i in [1, 2, 3, 4]:
   a += 3","12","1"
"","html-keyboard-response","355","1061799","0.0-10.0-9.0-2.0-0.0","475","<div><div style=""""><a style=""white-space:pre-wrap;""> for i in [1, 2, 3, 4]:
   a += 3</a><a style=""""></a></div></div>","15","15","1","43","for i in [1, 2, 3, 4]:
   a += 3","15","2"
"","html-keyboard-response","356","1062663","0.0-10.0-9.0-3.0-0.0","353","<div><div style=""""><a style=""white-space:pre-wrap;""> for i in [1, 2, 3, 4]:
   a += 3</a><a style=""""></a></div></div>","18","18","1","43","for i in [1, 2, 3, 4]:
   a += 3","18","3"
"","html-keyboard-response","357","1063567","0.0-10.0-9.0-4.0-0.0","394","<div><div style=""""><a style=""white-space:pre-wrap;""> for i in [1, 2, 3, 4]:
   a += 3</a><a style=""""></a></div></div>","backspace","backspace","1","43","for i in [1, 2, 3, 4]:
   a += 3","backspace","4"
"","html-keyboard-response","358","1069544","0.0-10.0-10.0-0.0-0.0","5465","<div><div style=""""><a style=""white-space:pre-wrap;""> for i in [1, 2]:
   a /= 3
   a *= 2</a><a style=""""></a></div></div>","6","6","1","44","for i in [1, 2]:
   a /= 3
   a *= 2","6","0"
"","html-keyboard-response","359","1070879","0.0-10.0-10.0-1.0-0.0","832","<div><div style=""""><a style=""white-space:pre-wrap;""> for i in [1, 2]:
   a /= 3
   a *= 2</a><a style=""""></a></div></div>","12","12","1","44","for i in [1, 2]:
   a /= 3
   a *= 2","12","1"
"","html-keyboard-response","360","1072343","0.0-10.0-10.0-2.0-0.0","960","<div><div style=""""><a style=""white-space:pre-wrap;""> for i in [1, 2]:
   a /= 3
   a *= 2</a><a style=""""></a></div></div>","4","4","1","44","for i in [1, 2]:
   a /= 3
   a *= 2","4","2"
"","html-keyboard-response","361","1073247","0.0-10.0-10.0-3.0-0.0","389","<div><div style=""""><a style=""white-space:pre-wrap;""> for i in [1, 2]:
   a /= 3
   a *= 2</a><a style=""""></a></div></div>","8","8","1","44","for i in [1, 2]:
   a /= 3
   a *= 2","8","3"
"","html-keyboard-response","362","1074631","0.0-10.0-10.0-4.0-0.0","881","<div><div style=""""><a style=""white-space:pre-wrap;""> for i in [1, 2]:
   a /= 3
   a *= 2</a><a style=""""></a></div></div>","backspace","backspace","1","44","for i in [1, 2]:
   a /= 3
   a *= 2","backspace","4"
"","html-keyboard-response","363","1081872","0.0-10.0-11.0-0.0-0.0","6727","<div><div style=""""><a style=""white-space:pre-wrap;""> while a >= 3:
   a *= 2
   a -= 9</a><a style=""""></a></div></div>","12","16","0","45","while a >= 3:
   a *= 2
   a -= 9","16","0"
"","html-keyboard-response","365","1087639","0.0-10.0-11.0-1.0-0.0","1757","<div><div style=""""><a style=""white-space:pre-wrap;""> while a >= 3:
   a *= 2
   a -= 9</a><a style=""""></a></div></div>","7","7","1","45","while a >= 3:
   a *= 2
   a -= 9","7","1"
"","html-keyboard-response","366","1091671","0.0-10.0-11.0-2.0-0.0","3522","<div><div style=""""><a style=""white-space:pre-wrap;""> while a >= 3:
   a *= 2
   a -= 9</a><a style=""""></a></div></div>","14","14","1","45","while a >= 3:
   a *= 2
   a -= 9","14","2"
"","html-keyboard-response","367","1093687","0.0-10.0-11.0-3.0-0.0","1506","<div><div style=""""><a style=""white-space:pre-wrap;""> while a >= 3:
   a *= 2
   a -= 9</a><a style=""""></a></div></div>","5","5","1","45","while a >= 3:
   a *= 2
   a -= 9","5","3"
"","html-keyboard-response","368","1095167","0.0-10.0-11.0-4.0-0.0","972","<div><div style=""""><a style=""white-space:pre-wrap;""> while a >= 3:
   a *= 2
   a -= 9</a><a style=""""></a></div></div>","10","10","1","45","while a >= 3:
   a *= 2
   a -= 9","10","4"
"","html-keyboard-response","369","1095999","0.0-10.0-11.0-5.0-0.0","318","<div><div style=""""><a style=""white-space:pre-wrap;""> while a >= 3:
   a *= 2
   a -= 9</a><a style=""""></a></div></div>","1","1","1","45","while a >= 3:
   a *= 2
   a -= 9","1","5"
"","html-keyboard-response","370","1096783","0.0-10.0-11.0-6.0-0.0","271","<div><div style=""""><a style=""white-space:pre-wrap;""> while a >= 3:
   a *= 2
   a -= 9</a><a style=""""></a></div></div>","backspace","backspace","1","45","while a >= 3:
   a *= 2
   a -= 9","backspace","6"
"","html-keyboard-response","371","1226952","0.0-11.0-0.0-0.0","129663","<p style=""position:absolute; top:30%; font-size:25px; color:green;"" >Take a short break now</p>"," ","","","","","",""
"","html-keyboard-response","372","1227639","0.0-11.0-1.0","686","<p style=""font-size: 25px;"">Please press space to start the next program<br>>>>>>></p>"," ","","","","","",""
"","html-keyboard-response","373","1228799","0.0-11.0-2.0","1158","<div><div style="" font-size:25px; color:green;""><a style=""white-space:pre-wrap;""> a = 9</a><a style=""""></a></div></div>","","null","","100","a = 9","",""
"","html-keyboard-response","374","1233183","0.0-11.0-4.0-0.0-0.0","3881","<div><div style=""""><a style=""white-space:pre-wrap;""> for i in [1, 2]:
   a /= 3</a><a style=""""></a></div></div>","3","3","1","101","for i in [1, 2]:
   a /= 3","3","0"
"","html-keyboard-response","375","1233831","0.0-11.0-4.0-1.0-0.0","130","<div><div style=""""><a style=""white-space:pre-wrap;""> for i in [1, 2]:
   a /= 3</a><a style=""""></a></div></div>","1","1","1","101","for i in [1, 2]:
   a /= 3","1","1"
"","html-keyboard-response","376","1234535","0.0-11.0-4.0-2.0-0.0","193","<div><div style=""""><a style=""white-space:pre-wrap;""> for i in [1, 2]:
   a /= 3</a><a style=""""></a></div></div>","backspace","backspace","1","101","for i in [1, 2]:
   a /= 3","backspace","2"
"","html-keyboard-response","377","1237591","0.0-11.0-5.0-0.0-0.0","2544","<div><div style=""""><a style=""white-space:pre-wrap;""> for i in [1, 2, 3]:
   a += 6</a><a style=""""></a></div></div>","7","7","1","102","for i in [1, 2, 3]:
   a += 6","7","0"
"","html-keyboard-response","378","1240175","0.0-11.0-5.0-1.0-0.0","2080","<div><div style=""""><a style=""white-space:pre-wrap;""> for i in [1, 2, 3]:
   a += 6</a><a style=""""></a></div></div>","13","13","1","102","for i in [1, 2, 3]:
   a += 6","13","1"
"","html-keyboard-response","379","1242007","0.0-11.0-5.0-2.0-0.0","1326","<div><div style=""""><a style=""white-space:pre-wrap;""> for i in [1, 2, 3]:
   a += 6</a><a style=""""></a></div></div>","18","19","0","102","for i in [1, 2, 3]:
   a += 6","19","2"
"","html-keyboard-response","381","1246383","0.0-11.0-5.0-3.0-0.0","364","<div><div style=""""><a style=""white-space:pre-wrap;""> for i in [1, 2, 3]:
   a += 6</a><a style=""""></a></div></div>","backspace","backspace","1","102","for i in [1, 2, 3]:
   a += 6","backspace","3"
"","html-keyboard-response","382","1249992","0.0-11.0-6.0-0.0-0.0","3095","<div><div style=""""><a style=""white-space:pre-wrap;""> while a >= 10:
   a += 1
   a -= 8</a><a style=""""></a></div></div>","20","20","1","103","while a >= 10:
   a += 1
   a -= 8","20","0"
"","html-keyboard-response","383","1251007","0.0-11.0-6.0-1.0-0.0","504","<div><div style=""""><a style=""white-space:pre-wrap;""> while a >= 10:
   a += 1
   a -= 8</a><a style=""""></a></div></div>","12","12","1","103","while a >= 10:
   a += 1
   a -= 8","12","1"
"","html-keyboard-response","384","1254047","0.0-11.0-6.0-2.0-0.0","2525","<div><div style=""""><a style=""white-space:pre-wrap;""> while a >= 10:
   a += 1
   a -= 8</a><a style=""""></a></div></div>","13","13","1","103","while a >= 10:
   a += 1
   a -= 8","13","2"
"","html-keyboard-response","385","1256871","0.0-11.0-6.0-3.0-0.0","2315","<div><div style=""""><a style=""white-space:pre-wrap;""> while a >= 10:
   a += 1
   a -= 8</a><a style=""""></a></div></div>","5","5","1","103","while a >= 10:
   a += 1
   a -= 8","5","3"
"","html-keyboard-response","386","1259391","0.0-11.0-6.0-4.0-0.0","2012","<div><div style=""""><a style=""white-space:pre-wrap;""> while a >= 10:
   a += 1
   a -= 8</a><a style=""""></a></div></div>","backspace","backspace","1","103","while a >= 10:
   a += 1
   a -= 8","backspace","4"
"","html-keyboard-response","387","1262768","0.0-11.0-7.0-0.0-0.0","2859","<div><div style=""""><a style=""white-space:pre-wrap;""> while a <= 6:
   a *= 3
   a -= 9</a><a style=""""></a></div></div>","15","15","1","104","while a <= 6:
   a *= 3
   a -= 9","15","0"
"","html-keyboard-response","388","1264271","0.0-11.0-7.0-1.0-0.0","996","<div><div style=""""><a style=""white-space:pre-wrap;""> while a <= 6:
   a *= 3
   a -= 9</a><a style=""""></a></div></div>","6","6","1","104","while a <= 6:
   a *= 3
   a -= 9","6","1"
"","html-keyboard-response","389","1268727","0.0-11.0-7.0-2.0-0.0","3949","<div><div style=""""><a style=""white-space:pre-wrap;""> while a <= 6:
   a *= 3
   a -= 9</a><a style=""""></a></div></div>","18","18","1","104","while a <= 6:
   a *= 3
   a -= 9","18","2"
"","html-keyboard-response","390","1269999","0.0-11.0-7.0-3.0-0.0","759","<div><div style=""""><a style=""white-space:pre-wrap;""> while a <= 6:
   a *= 3
