"success","trial_type","trial_index","time_elapsed","internal_node_id","rt","stimulus","response","expected_response","correct","uid","text1","correct_response","loop_step"
"true","fullscreen","0","27565","0.0-0.0","","","","","","","","",""
"","html-keyboard-response","1","41433","0.0-1.0","13863","Please make sure that your keyboard is in English mode. Press 'A' to continue","a","","","","","",""
"","html-keyboard-response","2","51616","0.0-2.0-1.0","10180","<p style=""font-size: 25px;"">Please press space to start the next program<br>>>>>>></p>"," ","","","","","",""
"","html-keyboard-response","3","53440","0.0-2.0-2.0","1822","<div><div style="" font-size:25px; color:green;""><a style=""white-space:pre-wrap;""> a = 11</a><a style=""""></a></div></div>","","null","","55","a = 11","",""
"","html-keyboard-response","4","56464","0.0-2.0-4.0-0.0-0.0","2507","<div><div style=""""><a style=""white-space:pre-wrap;""> for i in [1, 2]:
   a += 4
   a /= 3</a><a style=""""></a></div></div>","15","15","1","56","for i in [1, 2]:
   a += 4
   a /= 3","15","0"
"","html-keyboard-response","5","58264","0.0-2.0-4.0-1.0-0.0","1287","<div><div style=""""><a style=""white-space:pre-wrap;""> for i in [1, 2]:
   a += 4
   a /= 3</a><a style=""""></a></div></div>","5","5","1","56","for i in [1, 2]:
   a += 4
   a /= 3","5","1"
"","html-keyboard-response","6","59928","0.0-2.0-4.0-2.0-0.0","1155","<div><div style=""""><a style=""white-space:pre-wrap;""> for i in [1, 2]:
   a += 4
   a /= 3</a><a style=""""></a></div></div>","backspace","9","0","56","for i in [1, 2]:
   a += 4
   a /= 3","9","2"
"","html-keyboard-response","8","65665","0.0-2.0-4.0-3.0-0.0","1717","<div><div style=""""><a style=""white-space:pre-wrap;""> for i in [1, 2]:
   a += 4
   a /= 3</a><a style=""""></a></div></div>","13","3","0","56","for i in [1, 2]:
   a += 4
   a /= 3","3","3"
"","html-keyboard-response","10","70096","0.0-2.0-4.0-4.0-0.0","421","<div><div style=""""><a style=""white-space:pre-wrap;""> for i in [1, 2]:
   a += 4
   a /= 3</a><a style=""""></a></div></div>","backspace","","1","","","backspace",""
"","html-keyboard-response","11","82729","0.0-2.0-5.0-0.0-0.0","12119","<div><div style=""""><a style=""white-space:pre-wrap;""> while a <= 11:
   a = round_down(a*2.5)</a><a style=""""></a></div></div>","7","7","1","57","while a <= 11:
   a = round_down(a*2.5)","7","0"
"","html-keyboard-response","12","94497","0.0-2.0-5.0-1.0-0.0","11262","<div><div style=""""><a style=""white-space:pre-wrap;""> while a <= 11:
   a = round_down(a*2.5)</a><a style=""""></a></div></div>","17","17","1","57","while a <= 11:
   a = round_down(a*2.5)","17","1"
"","html-keyboard-response","13","97352","0.0-2.0-5.0-2.0-0.0","2353","<div><div style=""""><a style=""white-space:pre-wrap;""> while a <= 11:
   a = round_down(a*2.5)</a><a style=""""></a></div></div>","backspace","","1","","","backspace",""
"","html-keyboard-response","14","102584","0.0-2.0-6.0-0.0-0.0","4729","<div><div style=""""><a style=""white-space:pre-wrap;""> while a >= 3:
   a = average(a,1)</a><a style=""""></a></div></div>","9","9","1","58","while a >= 3:
   a = average(a,1)","9","0"
"","html-keyboard-response","15","107473","0.0-2.0-6.0-1.0-0.0","4371","<div><div style=""""><a style=""white-space:pre-wrap;""> while a >= 3:
   a = average(a,1)</a><a style=""""></a></div></div>","5","5","1","58","while a >= 3:
   a = average(a,1)","5","1"
"","html-keyboard-response","16","111896","0.0-2.0-6.0-2.0-0.0","3910","<div><div style=""""><a style=""white-space:pre-wrap;""> while a >= 3:
   a = average(a,1)</a><a style=""""></a></div></div>","3","3","1","58","while a >= 3:
   a = average(a,1)","3","2"
"","html-keyboard-response","17","114344","0.0-2.0-6.0-3.0-0.0","1943","<div><div style=""""><a style=""white-space:pre-wrap;""> while a >= 3:
   a = average(a,1)</a><a style=""""></a></div></div>","2","2","1","58","while a >= 3:
   a = average(a,1)","2","3"
"","html-keyboard-response","18","115368","0.0-2.0-6.0-4.0-0.0","512","<div><div style=""""><a style=""white-space:pre-wrap;""> while a >= 3:
   a = average(a,1)</a><a style=""""></a></div></div>","backspace","","1","","","backspace",""
"","html-keyboard-response","19","120264","0.0-2.0-7.0-0.0-0.0","4382","<div><div style=""""><a style=""white-space:pre-wrap;""> while a <= 10:
   a *= 3
   a -= 1</a><a style=""""></a></div></div>","6","6","1","59","while a <= 10:
   a *= 3
   a -= 1","6","0"
"","html-keyboard-response","20","122152","0.0-2.0-7.0-1.0-0.0","1384","<div><div style=""""><a style=""white-space:pre-wrap;""> while a <= 10:
   a *= 3
   a -= 1</a><a style=""""></a></div></div>","5","5","1","59","while a <= 10:
   a *= 3
   a -= 1","5","1"
"","html-keyboard-response","21","124728","0.0-2.0-7.0-2.0-0.0","2074","<div><div style=""""><a style=""white-space:pre-wrap;""> while a <= 10:
   a *= 3
   a -= 1</a><a style=""""></a></div></div>","15","15","1","59","while a <= 10:
   a *= 3
   a -= 1","15","2"
"","html-keyboard-response","22","126368","0.0-2.0-7.0-3.0-0.0","1132","<div><div style=""""><a style=""white-space:pre-wrap;""> while a <= 10:
   a *= 3
   a -= 1</a><a style=""""></a></div></div>","14","14","1","59","while a <= 10:
   a *= 3
   a -= 1","14","3"
"","html-keyboard-response","23","127232","0.0-2.0-7.0-4.0-0.0","359","<div><div style=""""><a style=""white-space:pre-wrap;""> while a <= 10:
   a *= 3
   a -= 1</a><a style=""""></a></div></div>","backspace","","1","","","backspace",""
"","html-keyboard-response","24","132560","0.0-2.0-8.0-0.0-0.0","4813","<div><div style=""""><a style=""white-space:pre-wrap;""> for i in [1, 2, 3]:
   a -= 5
   a += 1</a><a style=""""></a></div></div>","9","9","1","60","for i in [1, 2, 3]:
   a -= 5
   a += 1","9","0"
"","html-keyboard-response","25","134184","0.0-2.0-8.0-1.0-0.0","1110","<div><div style=""""><a style=""white-space:pre-wrap;""> for i in [1, 2, 3]:
   a -= 5
   a += 1</a><a style=""""></a></div></div>","10","10","1","60","for i in [1, 2, 3]:
   a -= 5
   a += 1","10","1"
"","html-keyboard-response","26","138352","0.0-2.0-8.0-2.0-0.0","3660","<div><div style=""""><a style=""white-space:pre-wrap;""> for i in [1, 2, 3]:
   a -= 5
   a += 1</a><a style=""""></a></div></div>","5","5","1","60","for i in [1, 2, 3]:
   a -= 5
   a += 1","5","2"
"","html-keyboard-response","27","139264","0.0-2.0-8.0-3.0-0.0","404","<div><div style=""""><a style=""white-space:pre-wrap;""> for i in [1, 2, 3]:
   a -= 5
   a += 1</a><a style=""""></a></div></div>","6","6","1","60","for i in [1, 2, 3]:
   a -= 5
   a += 1","6","3"
"","html-keyboard-response","28","141512","0.0-2.0-8.0-4.0-0.0","1730","<div><div style=""""><a style=""white-space:pre-wrap;""> for i in [1, 2, 3]:
   a -= 5
   a += 1</a><a style=""""></a></div></div>","1","1","1","60","for i in [1, 2, 3]:
   a -= 5
   a += 1","1","4"
"","html-keyboard-response","29","142264","0.0-2.0-8.0-5.0-0.0","240","<div><div style=""""><a style=""white-space:pre-wrap;""> for i in [1, 2, 3]:
   a -= 5
   a += 1</a><a style=""""></a></div></div>","2","2","1","60","for i in [1, 2, 3]:
   a -= 5
   a += 1","2","5"
"","html-keyboard-response","30","143296","0.0-2.0-8.0-6.0-0.0","522","<div><div style=""""><a style=""white-space:pre-wrap;""> for i in [1, 2, 3]:
   a -= 5
   a += 1</a><a style=""""></a></div></div>","backspace","","1","","","backspace",""
"","html-keyboard-response","31","146280","0.0-2.0-9.0-0.0-0.0","2480","<div><div style=""""><a style=""white-space:pre-wrap;""> for i in [1, 2]:
   a *= 3</a><a style=""""></a></div></div>","6","6","1","61","for i in [1, 2]:
   a *= 3","6","0"
"","html-keyboard-response","32","150248","0.0-2.0-9.0-1.0-0.0","3463","<div><div style=""""><a style=""white-space:pre-wrap;""> for i in [1, 2]:
   a *= 3</a><a style=""""></a></div></div>","18","18","1","61","for i in [1, 2]:
   a *= 3","18","1"
"","html-keyboard-response","33","151168","0.0-2.0-9.0-2.0-0.0","415","<div><div style=""""><a style=""white-space:pre-wrap;""> for i in [1, 2]:
   a *= 3</a><a style=""""></a></div></div>","backspace","","1","","","backspace",""
"","html-keyboard-response","34","156368","0.0-2.0-10.0-0.0-0.0","4684","<div><div style=""""><a style=""white-space:pre-wrap;""> for i in [1, 2]:
   a /= 3
   a *= 2</a><a style=""""></a></div></div>","6","6","1","62","for i in [1, 2]:
   a /= 3
   a *= 2","6","0"
"","html-keyboard-response","35","158160","0.0-2.0-10.0-1.0-0.0","1290","<div><div style=""""><a style=""white-space:pre-wrap;""> for i in [1, 2]:
   a /= 3
   a *= 2</a><a style=""""></a></div></div>","12","12","1","62","for i in [1, 2]:
   a /= 3
   a *= 2","12","1"
"","html-keyboard-response","36","161840","0.0-2.0-10.0-2.0-0.0","3165","<div><div style=""""><a style=""white-space:pre-wrap;""> for i in [1, 2]:
   a /= 3
   a *= 2</a><a style=""""></a></div></div>","4","4","1","62","for i in [1, 2]:
   a /= 3
   a *= 2","4","2"
"","html-keyboard-response","37","163224","0.0-2.0-10.0-3.0-0.0","867","<div><div style=""""><a style=""white-space:pre-wrap;""> for i in [1, 2]:
   a /= 3
   a *= 2</a><a style=""""></a></div></div>","8","8","1","62","for i in [1, 2]:
   a /= 3
   a *= 2","8","3"
"","html-keyboard-response","38","164360","0.0-2.0-10.0-4.0-0.0","628","<div><div style=""""><a style=""white-space:pre-wrap;""> for i in [1, 2]:
   a /= 3
   a *= 2</a><a style=""""></a></div></div>","backspace","","1","","","backspace",""
"","html-keyboard-response","39","169656","0.0-2.0-11.0-0.0-0.0","4789","<div><div style=""""><a style=""white-space:pre-wrap;""> while a <= 17:
   a += 4</a><a style=""""></a></div></div>","12","12","1","63","while a <= 17:
   a += 4","12","0"
"","html-keyboard-response","40","171768","0.0-2.0-11.0-1.0-0.0","1609","<div><div style=""""><a style=""white-space:pre-wrap;""> while a <= 17:
   a += 4</a><a style=""""></a></div></div>","16","16","1","63","while a <= 17:
   a += 4","16","1"
"","html-keyboard-response","41","173640","0.0-2.0-11.0-2.0-0.0","1362","<div><div style=""""><a style=""white-space:pre-wrap;""> while a <= 17:
   a += 4</a><a style=""""></a></div></div>","20","20","1","63","while a <= 17:
   a += 4","20","2"
"","html-keyboard-response","42","174967","0.0-2.0-11.0-3.0-0.0","812","<div><div style=""""><a style=""white-space:pre-wrap;""> while a <= 17:
   a += 4</a><a style=""""></a></div></div>","backspace","","1","","","backspace",""
"","html-keyboard-response","43","177304","0.0-3.0-1.0","1821","<p style=""font-size: 25px;"">Please press space to start the next program<br>>>>>>></p>"," ","","","","","",""
"","html-keyboard-response","44","180392","0.0-3.0-2.0","3087","<div><div style="" font-size:25px; color:green;""><a style=""white-space:pre-wrap;""> a = 7</a><a style=""""></a></div></div>","","null","","1","a = 7","",""
"","html-keyboard-response","45","184680","0.0-3.0-4.0-0.0-0.0","3778","<div><div style=""""><a style=""white-space:pre-wrap;""> while a <= 14:
   a *= 2
   a -= 4</a><a style=""""></a></div></div>","14","14","1","2","while a <= 14:
   a *= 2
   a -= 4","14","0"
"","html-keyboard-response","46","186160","0.0-3.0-4.0-1.0-0.0","975","<div><div style=""""><a style=""white-space:pre-wrap;""> while a <= 14:
   a *= 2
   a -= 4</a><a style=""""></a></div></div>","10","10","1","2","while a <= 14:
   a *= 2
   a -= 4","10","1"
"","html-keyboard-response","47","187392","0.0-3.0-4.0-2.0-0.0","728","<div><div style=""""><a style=""white-space:pre-wrap;""> while a <= 14:
   a *= 2
   a -= 4</a><a style=""""></a></div></div>","20","20","1","2","while a <= 14:
   a *= 2
   a -= 4","20","2"
"","html-keyboard-response","48","189024","0.0-3.0-4.0-3.0-0.0","1115","<div><div style=""""><a style=""white-space:pre-wrap;""> while a <= 14:
   a *= 2
   a -= 4</a><a style=""""></a></div></div>","16","16","1","2","while a <= 14:
   a *= 2
   a -= 4","16","3"
"","html-keyboard-response","49","190184","0.0-3.0-4.0-4.0-0.0","645","<div><div style=""""><a style=""white-space:pre-wrap;""> while a <= 14:
   a *= 2
   a -= 4</a><a style=""""></a></div></div>","backspace","","1","","","backspace",""
"","html-keyboard-response","50","194113","0.0-3.0-5.0-0.0-0.0","3425","<div><div style=""""><a style=""white-space:pre-wrap;""> while a >= 3:
   a /= 4
   a *= 2</a><a style=""""></a></div></div>","4","4","1","3","while a >= 3:
   a /= 4
   a *= 2","4","0"
"","html-keyboard-response","51","196064","0.0-3.0-5.0-1.0-0.0","1435","<div><div style=""""><a style=""white-space:pre-wrap;""> while a >= 3:
   a /= 4
   a *= 2</a><a style=""""></a></div></div>","8","8","1","3","while a >= 3:
   a /= 4
   a *= 2","8","1"
"","html-keyboard-response","52","199000","0.0-3.0-5.0-2.0-0.0","2420","<div><div style=""""><a style=""white-space:pre-wrap;""> while a >= 3:
   a /= 4
   a *= 2</a><a style=""""></a></div></div>","2","2","1","3","while a >= 3:
   a /= 4
   a *= 2","2","2"
"","html-keyboard-response","53","200376","0.0-3.0-5.0-3.0-0.0","864","<div><div style=""""><a style=""white-space:pre-wrap;""> while a >= 3:
   a /= 4
   a *= 2</a><a style=""""></a></div></div>","4","4","1","3","while a >= 3:
   a /= 4
   a *= 2","4","3"
"","html-keyboard-response","54","203368","0.0-3.0-5.0-4.0-0.0","2475","<div><div style=""""><a style=""white-space:pre-wrap;""> while a >= 3:
   a /= 4
   a *= 2</a><a style=""""></a></div></div>","1","1","1","3","while a >= 3:
   a /= 4
   a *= 2","1","4"
"","html-keyboard-response","55","204224","0.0-3.0-5.0-5.0-0.0","345","<div><div style=""""><a style=""white-space:pre-wrap;""> while a >= 3:
   a /= 4
   a *= 2</a><a style=""""></a></div></div>","2","2","1","3","while a >= 3:
   a /= 4
   a *= 2","2","5"
"","html-keyboard-response","56","205272","0.0-3.0-5.0-6.0-0.0","539","<div><div style=""""><a style=""white-space:pre-wrap;""> while a >= 3:
   a /= 4
   a *= 2</a><a style=""""></a></div></div>","backspace","","1","","","backspace",""
"","html-keyboard-response","57","211088","0.0-3.0-6.0-0.0-0.0","5310","<div><div style=""""><a style=""white-space:pre-wrap;""> for i in [1, 2]:
   a = round_up(a*2.5)</a><a style=""""></a></div></div>","5","5","1","4","for i in [1, 2]:
   a = round_up(a*2.5)","5","0"
"","html-keyboard-response","58","214417","0.0-3.0-6.0-1.0-0.0","2826","<div><div style=""""><a style=""white-space:pre-wrap;""> for i in [1, 2]:
   a = round_up(a*2.5)</a><a style=""""></a></div></div>","13","13","1","4","for i in [1, 2]:
   a = round_up(a*2.5)","13","1"
"","html-keyboard-response","59","216024","0.0-3.0-6.0-2.0-0.0","1094","<div><div style=""""><a style=""white-space:pre-wrap;""> for i in [1, 2]:
   a = round_up(a*2.5)</a><a style=""""></a></div></div>","backspace","","1","","","backspace",""
"","html-keyboard-response","60","226577","0.0-3.0-7.0-0.0-0.0","10039","<div><div style=""""><a style=""white-space:pre-wrap;""> while a >= 7:
   a = average(a,5)</a><a style=""""></a></div></div>","6","9","0","5","while a >= 7:
   a = average(a,5)","9","0"
"","html-keyboard-response","62","235736","0.0-3.0-7.0-1.0-0.0","5139","<div><div style=""""><a style=""white-space:pre-wrap;""> while a >= 7:
   a = average(a,5)</a><a style=""""></a></div></div>","7","7","1","5","while a >= 7:
   a = average(a,5)","7","1"
"","html-keyboard-response","63","242521","0.0-3.0-7.0-2.0-0.0","6268","<div><div style=""""><a style=""white-space:pre-wrap;""> while a >= 7:
   a = average(a,5)</a><a style=""""></a></div></div>","6","6","1","5","while a >= 7:
   a = average(a,5)","6","2"
"","html-keyboard-response","64","243680","0.0-3.0-7.0-3.0-0.0","652","<div><div style=""""><a style=""white-space:pre-wrap;""> while a >= 7:
   a = average(a,5)</a><a style=""""></a></div></div>","backspace","","1","","","backspace",""
"","html-keyboard-response","65","247616","0.0-3.0-8.0-0.0-0.0","3420","<div><div style=""""><a style=""white-space:pre-wrap;""> for i in [1, 2]:
   a += 2
   a /= 2</a><a style=""""></a></div></div>","8","8","1","6","for i in [1, 2]:
   a += 2
   a /= 2","8","0"
"","html-keyboard-response","66","248928","0.0-3.0-8.0-1.0-0.0","795","<div><div style=""""><a style=""white-space:pre-wrap;""> for i in [1, 2]:
   a += 2
   a /= 2</a><a style=""""></a></div></div>","4","4","1","6","for i in [1, 2]:
   a += 2
   a /= 2","4","1"
"","html-keyboard-response","67","251208","0.0-3.0-8.0-2.0-0.0","1764","<div><div style=""""><a style=""white-space:pre-wrap;""> for i in [1, 2]:
   a += 2
   a /= 2</a><a style=""""></a></div></div>","6","6","1","6","for i in [1, 2]:
   a += 2
   a /= 2","6","2"
"","html-keyboard-response","68","252472","0.0-3.0-8.0-3.0-0.0","752","<div><div style=""""><a style=""white-space:pre-wrap;""> for i in [1, 2]:
   a += 2
   a /= 2</a><a style=""""></a></div></div>","3","3","1","6","for i in [1, 2]:
   a += 2
   a /= 2","3","3"
"","html-keyboard-response","69","253305","0.0-3.0-8.0-4.0-0.0","325","<div><div style=""""><a style=""white-space:pre-wrap;""> for i in [1, 2]:
   a += 2
   a /= 2</a><a style=""""></a></div></div>","backspace","","1","","","backspace",""
"","html-keyboard-response","70","256008","0.0-3.0-9.0-0.0-0.0","2188","<div><div style=""""><a style=""white-space:pre-wrap;""> for i in [1, 2]:
   a *= 2</a><a style=""""></a></div></div>","6","6","1","7","for i in [1, 2]:
   a *= 2","6","0"
"","html-keyboard-response","71","256968","0.0-3.0-9.0-1.0-0.0","458","<div><div style=""""><a style=""white-space:pre-wrap;""> for i in [1, 2]:
   a *= 2</a><a style=""""></a></div></div>","12","12","1","7","for i in [1, 2]:
   a *= 2","12","1"
"","html-keyboard-response","72","257936","0.0-3.0-9.0-2.0-0.0","462","<div><div style=""""><a style=""white-space:pre-wrap;""> for i in [1, 2]:
   a *= 2</a><a style=""""></a></div></div>","backspace","","1","","","backspace",""
"","html-keyboard-response","73","261536","0.0-3.0-10.0-0.0-0.0","3094","<div><div style=""""><a style=""white-space:pre-wrap;""> while a <= 14:
   a += 6
   a -= 4</a><a style=""""></a></div></div>","18","18","1","8","while a <= 14:
   a += 6
   a -= 4","18","0"
"","html-keyboard-response","74","262792","0.0-3.0-10.0-1.0-0.0","740","<div><div style=""""><a style=""white-space:pre-wrap;""> while a <= 14:
   a += 6
   a -= 4</a><a style=""""></a></div></div>","14","14","1","8","while a <= 14:
   a += 6
   a -= 4","14","1"
"","html-keyboard-response","75","266097","0.0-3.0-10.0-2.0-0.0","2796","<div><div style=""""><a style=""white-space:pre-wrap;""> while a <= 14:
   a += 6
   a -= 4</a><a style=""""></a></div></div>","20","20","1","8","while a <= 14:
   a += 6
   a -= 4","20","2"
"","html-keyboard-response","76","267720","0.0-3.0-10.0-3.0-0.0","1116","<div><div style=""""><a style=""white-space:pre-wrap;""> while a <= 14:
   a += 6
   a -= 4</a><a style=""""></a></div></div>","16","16","1","8","while a <= 14:
   a += 6
   a -= 4","16","3"
"","html-keyboard-response","77","279192","0.0-3.0-10.0-4.0-0.0","10958","<div><div style=""""><a style=""white-space:pre-wrap;""> while a <= 14:
   a += 6
   a -= 4</a><a style=""""></a></div></div>","20","","0","","","backspace",""
"","html-keyboard-response","78","283215","0.0-3.0-10.0-4.0-1.0-0.0","null","<div><p style=""font-size:25px; color:green;"">end of loop<br>>>>>>></p>
						<div>Hit the ""end loop"" key to continue</div></div>","null","","","","","",""
"","html-keyboard-response","79","283568","0.0-3.0-10.0-4.1-0.1","350","<div><div style=""""><a style=""white-space:pre-wrap;""> while a <= 14:
   a += 6
   a -= 4</a><a style=""""></a></div></div>","backspace","","1","","","backspace",""
"","html-keyboard-response","80","296401","0.0-3.0-11.0-0.0-0.0","12317","<div><div style=""""><a style=""white-space:pre-wrap;""> while a >= 6:
   a -= 3</a><a style=""""></a></div></div>","13","13","1","9","while a >= 6:
   a -= 3","13","0"
"","html-keyboard-response","81","298344","0.0-3.0-11.0-1.0-0.0","1436","<div><div style=""""><a style=""white-space:pre-wrap;""> while a >= 6:
   a -= 3</a><a style=""""></a></div></div>","10","10","1","9","while a >= 6:
   a -= 3","10","1"
"","html-keyboard-response","82","299560","0.0-3.0-11.0-2.0-0.0","705","<div><div style=""""><a style=""white-space:pre-wrap;""> while a >= 6:
   a -= 3</a><a style=""""></a></div></div>","7","7","1","9","while a >= 6:
   a -= 3","7","2"
"","html-keyboard-response","83","301048","0.0-3.0-11.0-3.0-0.0","982","<div><div style=""""><a style=""white-space:pre-wrap;""> while a >= 6:
   a -= 3</a><a style=""""></a></div></div>","4","4","1","9","while a >= 6:
   a -= 3","4","3"
"","html-keyboard-response","84","302448","0.0-3.0-11.0-4.0-0.0","892","<div><div style=""""><a style=""white-space:pre-wrap;""> while a >= 6:
   a -= 3</a><a style=""""></a></div></div>","backspace","","1","","","backspace",""
"","html-keyboard-response","85","369593","0.0-4.0-0.0-0.0","66639","<p style=""position:absolute; top:30%; font-size:25px; color:green;"" >Take a short break now</p>"," ","","","","","",""
"","html-keyboard-response","86","371471","0.0-4.0-1.0","1877","<p style=""font-size: 25px;"">Please press space to start the next program<br>>>>>>></p>"," ","","","","","",""
"","html-keyboard-response","87","372639","0.0-4.0-2.0","1167","<div><div style="" font-size:25px; color:green;""><a style=""white-space:pre-wrap;""> a = 18</a><a style=""""></a></div></div>","","null","","28","a = 18","",""
"","html-keyboard-response","88","376920","0.0-4.0-4.0-0.0-0.0","3769","<div><div style=""""><a style=""white-space:pre-wrap;""> while a >= 10:
   a /= 3
   a *= 2</a><a style=""""></a></div></div>","6","6","1","29","while a >= 10:
   a /= 3
   a *= 2","6","0"
"","html-keyboard-response","89","378272","0.0-4.0-4.0-1.0-0.0","846","<div><div style=""""><a style=""white-space:pre-wrap;""> while a >= 10:
   a /= 3
   a *= 2</a><a style=""""></a></div></div>","12","12","1","29","while a >= 10:
   a /= 3
   a *= 2","12","1"
"","html-keyboard-response","90","381136","0.0-4.0-4.0-2.0-0.0","2355","<div><div style=""""><a style=""white-space:pre-wrap;""> while a >= 10:
   a /= 3
   a *= 2</a><a style=""""></a></div></div>","4","4","1","29","while a >= 10:
   a /= 3
   a *= 2","4","2"
"","html-keyboard-response","91","382200","0.0-4.0-4.0-3.0-0.0","560","<div><div style=""""><a style=""white-space:pre-wrap;""> while a >= 10:
   a /= 3
   a *= 2</a><a style=""""></a></div></div>","8","8","1","29","while a >= 10:
   a /= 3
   a *= 2","8","3"
"","html-keyboard-response","92","383216","0.0-4.0-4.0-4.0-0.0","503","<div><div style=""""><a style=""white-space:pre-wrap;""> while a >= 10:
   a /= 3
   a *= 2</a><a style=""""></a></div></div>","backspace","","1","","","backspace",""
"","html-keyboard-response","93","386544","0.0-4.0-5.0-0.0-0.0","2819","<div><div style=""""><a style=""white-space:pre-wrap;""> for i in [1, 2, 3]:
   a /= 2</a><a style=""""></a></div></div>","4","4","1","30","for i in [1, 2, 3]:
   a /= 2","4","0"
"","html-keyboard-response","94","387272","0.0-4.0-5.0-1.0-0.0","220","<div><div style=""""><a style=""white-space:pre-wrap;""> for i in [1, 2, 3]:
   a /= 2</a><a style=""""></a></div></div>","2","2","1","30","for i in [1, 2, 3]:
   a /= 2","2","1"
"","html-keyboard-response","95","388048","0.0-4.0-5.0-2.0-0.0","265","<div><div style=""""><a style=""white-space:pre-wrap;""> for i in [1, 2, 3]:
   a /= 2</a><a style=""""></a></div></div>","1","1","1","30","for i in [1, 2, 3]:
   a /= 2","1","2"
"","html-keyboard-response","96","389008","0.0-4.0-5.0-3.0-0.0","445","<div><div style=""""><a style=""white-space:pre-wrap;""> for i in [1, 2, 3]:
   a /= 2</a><a style=""""></a></div></div>","backspace","","1","","","backspace",""
"","html-keyboard-response","97","392488","0.0-4.0-6.0-0.0-0.0","2975","<div><div style=""""><a style=""white-space:pre-wrap;""> for i in [1, 2, 3, 4]:
   a += 2</a><a style=""""></a></div></div>","3","3","1","31","for i in [1, 2, 3, 4]:
   a += 2","3","0"
"","html-keyboard-response","98","394704","0.0-4.0-6.0-1.0-0.0","1710","<div><div style=""""><a style=""white-space:pre-wrap;""> for i in [1, 2, 3, 4]:
   a += 2</a><a style=""""></a></div></div>","5","5","1","31","for i in [1, 2, 3, 4]:
   a += 2","5","1"
"","html-keyboard-response","99","396336","0.0-4.0-6.0-2.0-0.0","1126","<div><div style=""""><a style=""white-space:pre-wrap;""> for i in [1, 2, 3, 4]:
   a += 2</a><a style=""""></a></div></div>","7","7","1","31","for i in [1, 2, 3, 4]:
   a += 2","7","2"
"","html-keyboard-response","100","397632","0.0-4.0-6.0-3.0-0.0","790","<div><div style=""""><a style=""white-space:pre-wrap;""> for i in [1, 2, 3, 4]:
   a += 2</a><a style=""""></a></div></div>","9","9","1","31","for i in [1, 2, 3, 4]:
   a += 2","9","3"
"","html-keyboard-response","101","398432","0.0-4.0-6.0-4.0-0.0","288","<div><div style=""""><a style=""white-space:pre-wrap;""> for i in [1, 2, 3, 4]:
   a += 2</a><a style=""""></a></div></div>","backspace","","1","","","backspace",""
"","html-keyboard-response","102","402120","0.0-4.0-7.0-0.0-0.0","3180","<div><div style=""""><a style=""white-space:pre-wrap;""> for i in [1, 2]:
   a += 9
   a /= 3</a><a style=""""></a></div></div>","18","18","1","32","for i in [1, 2]:
   a += 9
   a /= 3","18","0"
"","html-keyboard-response","103","403400","0.0-4.0-7.0-1.0-0.0","772","<div><div style=""""><a style=""white-space:pre-wrap;""> for i in [1, 2]:
   a += 9
   a /= 3</a><a style=""""></a></div></div>","6","6","1","32","for i in [1, 2]:
   a += 9
   a /= 3","6","1"
"","html-keyboard-response","104","407568","0.0-4.0-7.0-2.0-0.0","3665","<div><div style=""""><a style=""white-space:pre-wrap;""> for i in [1, 2]:
   a += 9
   a /= 3</a><a style=""""></a></div></div>","15","15","1","32","for i in [1, 2]:
   a += 9
   a /= 3","15","2"
"","html-keyboard-response","105","408392","0.0-4.0-7.0-3.0-0.0","309","<div><div style=""""><a style=""white-space:pre-wrap;""> for i in [1, 2]:
   a += 9
   a /= 3</a><a style=""""></a></div></div>","5","5","1","32","for i in [1, 2]:
   a += 9
   a /= 3","5","3"
"","html-keyboard-response","106","409160","0.0-4.0-7.0-4.0-0.0","254","<div><div style=""""><a style=""white-space:pre-wrap;""> for i in [1, 2]:
   a += 9
   a /= 3</a><a style=""""></a></div></div>","backspace","","1","","","backspace",""
"","html-keyboard-response","107","415952","0.0-4.0-8.0-0.0-0.0","6284","<div><div style=""""><a style=""white-space:pre-wrap;""> for i in [1, 2, 3]:
   a = round_down(a*1.5)</a><a style=""""></a></div></div>","7","7","1","33","for i in [1, 2, 3]:
   a = round_down(a*1.5)","7","0"
"","html-keyboard-response","108","421656","0.0-4.0-8.0-1.0-0.0","5193","<div><div style=""""><a style=""white-space:pre-wrap;""> for i in [1, 2, 3]:
   a = round_down(a*1.5)</a><a style=""""></a></div></div>","10","10","1","33","for i in [1, 2, 3]:
   a = round_down(a*1.5)","10","1"
"","html-keyboard-response","109","428712","0.0-4.0-8.0-2.0-0.0","6549","<div><div style=""""><a style=""white-space:pre-wrap;""> for i in [1, 2, 3]:
   a = round_down(a*1.5)</a><a style=""""></a></div></div>","15","15","1","33","for i in [1, 2, 3]:
   a = round_down(a*1.5)","15","2"
"","html-keyboard-response","110","429937","0.0-4.0-8.0-3.0-0.0","713","<div><div style=""""><a style=""white-space:pre-wrap;""> for i in [1, 2, 3]:
   a = round_down(a*1.5)</a><a style=""""></a></div></div>","backspace","","1","","","backspace",""
"","html-keyboard-response","111","434417","0.0-4.0-9.0-0.0-0.0","3963","<div><div style=""""><a style=""white-space:pre-wrap;""> while a >= 8:
   a = average(a,3)</a><a style=""""></a></div></div>","9","9","1","34","while a >= 8:
   a = average(a,3)","9","0"
"","html-keyboard-response","112","439961","0.0-4.0-9.0-1.0-0.0","5033","<div><div style=""""><a style=""white-space:pre-wrap;""> while a >= 8:
   a = average(a,3)</a><a style=""""></a></div></div>","6","6","1","34","while a >= 8:
   a = average(a,3)","6","1"
"","html-keyboard-response","113","442104","0.0-4.0-9.0-2.0-0.0","1640","<div><div style=""""><a style=""white-space:pre-wrap;""> while a >= 8:
   a = average(a,3)</a><a style=""""></a></div></div>","backspace","","1","","","backspace",""
"","html-keyboard-response","114","448456","0.0-4.0-10.0-0.0-0.0","5843","<div><div style=""""><a style=""white-space:pre-wrap;""> while a <= 11:
   a *= 2
   a -= 5</a><a style=""""></a></div></div>","12","12","1","35","while a <= 11:
   a *= 2
   a -= 5","12","0"
"","html-keyboard-response","115","450561","0.0-4.0-10.0-1.0-0.0","1597","<div><div style=""""><a style=""white-space:pre-wrap;""> while a <= 11:
   a *= 2
   a -= 5</a><a style=""""></a></div></div>","7","7","1","35","while a <= 11:
   a *= 2
   a -= 5","7","1"
"","html-keyboard-response","116","453033","0.0-4.0-10.0-2.0-0.0","1964","<div><div style=""""><a style=""white-space:pre-wrap;""> while a <= 11:
   a *= 2
   a -= 5</a><a style=""""></a></div></div>","14","14","1","35","while a <= 11:
   a *= 2
   a -= 5","14","2"
"","html-keyboard-response","117","455689","0.0-4.0-10.0-3.0-0.0","2141","<div><div style=""""><a style=""white-space:pre-wrap;""> while a <= 11:
   a *= 2
   a -= 5</a><a style=""""></a></div></div>","9","9","1","35","while a <= 11:
   a *= 2
   a -= 5","9","3"
"","html-keyboard-response","118","458353","0.0-4.0-10.0-4.0-0.0","2157","<div><div style=""""><a style=""white-space:pre-wrap;""> while a <= 11:
   a *= 2
   a -= 5</a><a style=""""></a></div></div>","18","18","1","35","while a <= 11:
   a *= 2
   a -= 5","18","4"
"","html-keyboard-response","119","459752","0.0-4.0-10.0-5.0-0.0","898","<div><div style=""""><a style=""white-space:pre-wrap;""> while a <= 11:
   a *= 2
   a -= 5</a><a style=""""></a></div></div>","13","13","1","35","while a <= 11:
   a *= 2
   a -= 5","13","5"
"","html-keyboard-response","120","460721","0.0-4.0-10.0-6.0-0.0","464","<div><div style=""""><a style=""white-space:pre-wrap;""> while a <= 11:
   a *= 2
   a -= 5</a><a style=""""></a></div></div>","backspace","","1","","","backspace",""
"","html-keyboard-response","121","465665","0.0-4.0-11.0-0.0-0.0","4428","<div><div style=""""><a style=""white-space:pre-wrap;""> for i in [1, 2, 3]:
   a += 4
   a -= 7</a><a style=""""></a></div></div>","17","17","1","36","for i in [1, 2, 3]:
   a += 4
   a -= 7","17","0"
"","html-keyboard-response","122","467032","0.0-4.0-11.0-1.0-0.0","864","<div><div style=""""><a style=""white-space:pre-wrap;""> for i in [1, 2, 3]:
   a += 4
   a -= 7</a><a style=""""></a></div></div>","10","10","1","36","for i in [1, 2, 3]:
   a += 4
   a -= 7","10","1"
"","html-keyboard-response","123","468361","0.0-4.0-11.0-2.0-0.0","821","<div><div style=""""><a style=""white-space:pre-wrap;""> for i in [1, 2, 3]:
   a += 4
   a -= 7</a><a style=""""></a></div></div>","14","14","1","36","for i in [1, 2, 3]:
   a += 4
   a -= 7","14","2"
"","html-keyboard-response","124","469745","0.0-4.0-11.0-3.0-0.0","874","<div><div style=""""><a style=""white-space:pre-wrap;""> for i in [1, 2, 3]:
   a += 4
   a -= 7</a><a style=""""></a></div></div>","7","7","1","36","for i in [1, 2, 3]:
   a += 4
   a -= 7","7","3"
"","html-keyboard-response","125","472649","0.0-4.0-11.0-4.0-0.0","2395","<div><div style=""""><a style=""white-space:pre-wrap;""> for i in [1, 2, 3]:
   a += 4
   a -= 7</a><a style=""""></a></div></div>","11","11","1","36","for i in [1, 2, 3]:
   a += 4
   a -= 7","11","4"
"","html-keyboard-response","126","474408","0.0-4.0-11.0-5.0-0.0","1245","<div><div style=""""><a style=""white-space:pre-wrap;""> for i in [1, 2, 3]:
   a += 4
   a -= 7</a><a style=""""></a></div></div>","4","4","1","36","for i in [1, 2, 3]:
   a += 4
   a -= 7","4","5"
"","html-keyboard-response","127","475392","0.0-4.0-11.0-6.0-0.0","468","<div><div style=""""><a style=""white-space:pre-wrap;""> for i in [1, 2, 3]:
   a += 4
   a -= 7</a><a style=""""></a></div></div>","backspace","","1","","","backspace",""
"","html-keyboard-response","128","477537","0.0-5.0-1.0","1631","<p style=""font-size: 25px;"">Please press space to start the next program<br>>>>>>></p>"," ","","","","","",""
"","html-keyboard-response","129","478977","0.0-5.0-2.0","1438","<div><div style="" font-size:25px; color:green;""><a style=""white-space:pre-wrap;""> a = 9</a><a style=""""></a></div></div>","","null","","91","a = 9","",""
"","html-keyboard-response","130","482633","0.0-5.0-4.0-0.0-0.0","3150","<div><div style=""""><a style=""white-space:pre-wrap;""> for i in [1, 2]:
   a /= 3</a><a style=""""></a></div></div>","3","3","1","92","for i in [1, 2]:
   a /= 3","3","0"
"","html-keyboard-response","131","483489","0.0-5.0-4.0-1.0-0.0","352","<div><div style=""""><a style=""white-space:pre-wrap;""> for i in [1, 2]:
   a /= 3</a><a style=""""></a></div></div>","1","1","1","92","for i in [1, 2]:
   a /= 3","1","1"
"","html-keyboard-response","132","484353","0.0-5.0-4.0-2.0-0.0","349","<div><div style=""""><a style=""white-space:pre-wrap;""> for i in [1, 2]:
   a /= 3</a><a style=""""></a></div></div>","backspace","","1","","","backspace",""
"","html-keyboard-response","133","489152","0.0-5.0-5.0-0.0-0.0","4293","<div><div style=""""><a style=""white-space:pre-wrap;""> while a <= 16:
   a += 6</a><a style=""""></a></div></div>","7","7","1","93","while a <= 16:
   a += 6","7","0"
"","html-keyboard-response","134","490057","0.0-5.0-5.0-1.0-0.0","400","<div><div style=""""><a style=""white-space:pre-wrap;""> while a <= 16:
   a += 6</a><a style=""""></a></div></div>","13","13","1","93","while a <= 16:
   a += 6","13","1"
"","html-keyboard-response","135","492601","0.0-5.0-5.0-2.0-0.0","2040","<div><div style=""""><a style=""white-space:pre-wrap;""> while a <= 16:
   a += 6</a><a style=""""></a></div></div>","19","19","1","93","while a <= 16:
   a += 6","19","2"
"","html-keyboard-response","136","494273","0.0-5.0-5.0-3.0-0.0","1169","<div><div style=""""><a style=""white-space:pre-wrap;""> while a <= 16:
   a += 6</a><a style=""""></a></div></div>","backspace","","1","","","backspace",""
"","html-keyboard-response","137","499281","0.0-5.0-6.0-0.0-0.0","4495","<div><div style=""""><a style=""white-space:pre-wrap;""> while a >= 10:
   a += 1
   a -= 8</a><a style=""""></a></div></div>","20","20","1","94","while a >= 10:
   a += 1
   a -= 8","20","0"
"","html-keyboard-response","138","501568","0.0-5.0-6.0-1.0-0.0","1786","<div><div style=""""><a style=""white-space:pre-wrap;""> while a >= 10:
   a += 1
   a -= 8</a><a style=""""></a></div></div>","12","12","1","94","while a >= 10:
   a += 1
   a -= 8","12","1"
"","html-keyboard-response","139","503497","0.0-5.0-6.0-2.0-0.0","1425","<div><div style=""""><a style=""white-space:pre-wrap;""> while a >= 10:
   a += 1
   a -= 8</a><a style=""""></a></div></div>","13","13","1","94","while a >= 10:
   a += 1
   a -= 8","13","2"
"","html-keyboard-response","140","505729","0.0-5.0-6.0-3.0-0.0","1725","<div><div style=""""><a style=""white-space:pre-wrap;""> while a >= 10:
   a += 1
   a -= 8</a><a style=""""></a></div></div>","5","5","1","94","while a >= 10:
   a += 1
   a -= 8","5","3"
"","html-keyboard-response","141","506681","0.0-5.0-6.0-4.0-0.0","434","<div><div style=""""><a style=""white-space:pre-wrap;""> while a >= 10:
   a += 1
   a -= 8</a><a style=""""></a></div></div>","backspace","","1","","","backspace",""
"","html-keyboard-response","142","509361","0.0-5.0-7.0-0.0-0.0","2164","<div><div style=""""><a style=""white-space:pre-wrap;""> for i in [1, 2]:
   a *= 3
   a -= 9</a><a style=""""></a></div></div>","15","15","1","95","for i in [1, 2]:
   a *= 3
   a -= 9","15","0"
"","html-keyboard-response","143","514553","0.0-5.0-7.0-1.0-0.0","4684","<div><div style=""""><a style=""white-space:pre-wrap;""> for i in [1, 2]:
   a *= 3
   a -= 9</a><a style=""""></a></div></div>","6","6","1","95","for i in [1, 2]:
   a *= 3
   a -= 9","6","1"
"","html-keyboard-response","144","517129","0.0-5.0-7.0-2.0-0.0","2061","<div><div style=""""><a style=""white-space:pre-wrap;""> for i in [1, 2]:
   a *= 3
   a -= 9</a><a style=""""></a></div></div>","18","18","1","95","for i in [1, 2]:
   a *= 3
   a -= 9","18","2"
"","html-keyboard-response","145","518201","0.0-5.0-7.0-3.0-0.0","565","<div><div style=""""><a style=""white-space:pre-wrap;""> for i in [1, 2]:
   a *= 3
   a -= 9</a><a style=""""></a></div></div>","9","9","1","95","for i in [1, 2]:
   a *= 3
   a -= 9","9","3"
"","html-keyboard-response","146","519177","0.0-5.0-7.0-4.0-0.0","472","<div><div style=""""><a style=""white-space:pre-wrap;""> for i in [1, 2]:
   a *= 3
   a -= 9</a><a style=""""></a></div></div>","backspace","","1","","","backspace",""
"","html-keyboard-response","147","523321","0.0-5.0-8.0-0.0-0.0","3634","<div><div style=""""><a style=""white-space:pre-wrap;""> for i in [1, 2, 3]:
   a = average(a, 1)</a><a style=""""></a></div></div>","5","5","1","96","for i in [1, 2, 3]:
   a = average(a, 1)","5","0"
"","html-keyboard-response","148","525273","0.0-5.0-8.0-1.0-0.0","1441","<div><div style=""""><a style=""white-space:pre-wrap;""> for i in [1, 2, 3]:
   a = average(a, 1)</a><a style=""""></a></div></div>","3","3","1","96","for i in [1, 2, 3]:
   a = average(a, 1)","3","1"
"","html-keyboard-response","149","527729","0.0-5.0-8.0-2.0-0.0","1950","<div><div style=""""><a style=""white-space:pre-wrap;""> for i in [1, 2, 3]:
   a = average(a, 1)</a><a style=""""></a></div></div>","2","2","1","96","for i in [1, 2, 3]:
   a = average(a, 1)","2","2"
"","html-keyboard-response","150","528632","0.0-5.0-8.0-3.0-0.0","391","<div><div style=""""><a style=""white-space:pre-wrap;""> for i in [1, 2, 3]:
   a = average(a, 1)</a><a style=""""></a></div></div>","backspace","","1","","","backspace",""
"","html-keyboard-response","151","534185","0.0-5.0-9.0-0.0-0.0","5040","<div><div style=""""><a style=""white-space:pre-wrap;""> for i in [1, 2]:
   a -= 1
   a *= 5</a><a style=""""></a></div></div>","1","1","1","97","for i in [1, 2]:
   a -= 1
   a *= 5","1","0"
"","html-keyboard-response","152","535432","0.0-5.0-9.0-1.0-0.0","732","<div><div style=""""><a style=""white-space:pre-wrap;""> for i in [1, 2]:
   a -= 1
   a *= 5</a><a style=""""></a></div></div>","5","5","1","97","for i in [1, 2]:
   a -= 1
   a *= 5","5","1"
"","html-keyboard-response","153","536936","0.0-5.0-9.0-2.0-0.0","988","<div><div style=""""><a style=""white-space:pre-wrap;""> for i in [1, 2]:
   a -= 1
   a *= 5</a><a style=""""></a></div></div>","4","4","1","97","for i in [1, 2]:
   a -= 1
   a *= 5","4","2"
"","html-keyboard-response","154","538025","0.0-5.0-9.0-3.0-0.0","583","<div><div style=""""><a style=""white-space:pre-wrap;""> for i in [1, 2]:
   a -= 1
   a *= 5</a><a style=""""></a></div></div>","20","20","1","97","for i in [1, 2]:
   a -= 1
   a *= 5","20","3"
"","html-keyboard-response","155","539240","0.0-5.0-9.0-4.0-0.0","707","<div><div style=""""><a style=""white-space:pre-wrap;""> for i in [1, 2]:
   a -= 1
   a *= 5</a><a style=""""></a></div></div>","backspace","","1","","","backspace",""
"","html-keyboard-response","156","543321","0.0-5.0-10.0-0.0-0.0","3571","<div><div style=""""><a style=""white-space:pre-wrap;""> while a >= 12:
   a -= 3</a><a style=""""></a></div></div>","17","17","1","98","while a >= 12:
   a -= 3","17","0"
"","html-keyboard-response","157","545145","0.0-5.0-10.0-1.0-0.0","1316","<div><div style=""""><a style=""white-space:pre-wrap;""> while a >= 12:
   a -= 3</a><a style=""""></a></div></div>","14","14","1","98","while a >= 12:
   a -= 3","14","1"
"","html-keyboard-response","158","546304","0.0-5.0-10.0-2.0-0.0","654","<div><div style=""""><a style=""white-space:pre-wrap;""> while a >= 12:
   a -= 3</a><a style=""""></a></div></div>","11","11","1","98","while a >= 12:
   a -= 3","11","2"
"","html-keyboard-response","159","547257","0.0-5.0-10.0-3.0-0.0","439","<div><div style=""""><a style=""white-space:pre-wrap;""> while a >= 12:
   a -= 3</a><a style=""""></a></div></div>","backspace","","1","","","backspace",""
"","html-keyboard-response","160","549593","0.0-5.0-11.0-0.0-0.0","1824","<div><div style=""""><a style=""white-space:pre-wrap;""> while a >= 5:
   a -= 5</a><a style=""""></a></div></div>","6","6","1","99","while a >= 5:
   a -= 5","6","0"
"","html-keyboard-response","161","551360","0.0-5.0-11.0-1.0-0.0","1255","<div><div style=""""><a style=""white-space:pre-wrap;""> while a >= 5:
   a -= 5</a><a style=""""></a></div></div>","1","1","1","99","while a >= 5:
   a -= 5","1","1"
"","html-keyboard-response","162","552512","0.0-5.0-11.0-2.0-0.0","647","<div><div style=""""><a style=""white-space:pre-wrap;""> while a >= 5:
   a -= 5</a><a style=""""></a></div></div>","backspace","","1","","","backspace",""
"","html-keyboard-response","163","553969","0.0-6.0-1.0","953","<p style=""font-size: 25px;"">Please press space to start the next program<br>>>>>>></p>"," ","","","","","",""
"","html-keyboard-response","164","555112","0.0-6.0-2.0","1142","<div><div style="" font-size:25px; color:green;""><a style=""white-space:pre-wrap;""> a = 8</a><a style=""""></a></div></div>","","null","","37","a = 8","",""
"","html-keyboard-response","165","559160","0.0-6.0-4.0-0.0-0.0","3537","<div><div style=""""><a style=""white-space:pre-wrap;""> while a <= 17:
   a -= 2
   a += 6</a><a style=""""></a></div></div>","6","6","1","38","while a <= 17:
   a -= 2
   a += 6","6","0"
"","html-keyboard-response","166","560585","0.0-6.0-4.0-1.0-0.0","922","<div><div style=""""><a style=""white-space:pre-wrap;""> while a <= 17:
   a -= 2
   a += 6</a><a style=""""></a></div></div>","12","12","1","38","while a <= 17:
   a -= 2
   a += 6","12","1"
"","html-keyboard-response","167","562656","0.0-6.0-4.0-2.0-0.0","1569","<div><div style=""""><a style=""white-space:pre-wrap;""> while a <= 17:
   a -= 2
   a += 6</a><a style=""""></a></div></div>","10","10","1","38","while a <= 17:
   a -= 2
   a += 6","10","2"
"","html-keyboard-response","168","563760","0.0-6.0-4.0-3.0-0.0","589","<div><div style=""""><a style=""white-space:pre-wrap;""> while a <= 17:
   a -= 2
   a += 6</a><a style=""""></a></div></div>","16","16","1","38","while a <= 17:
   a -= 2
   a += 6","16","3"
"","html-keyboard-response","169","565680","0.0-6.0-4.0-4.0-0.0","1415","<div><div style=""""><a style=""white-space:pre-wrap;""> while a <= 17:
   a -= 2
   a += 6</a><a style=""""></a></div></div>","14","14","1","38","while a <= 17:
   a -= 2
   a += 6","14","4"
"","html-keyboard-response","170","567112","0.0-6.0-4.0-5.0-0.0","915","<div><div style=""""><a style=""white-space:pre-wrap;""> while a <= 17:
   a -= 2
   a += 6</a><a style=""""></a></div></div>","20","20","1","38","while a <= 17:
   a -= 2
   a += 6","20","5"
"","html-keyboard-response","171","568312","0.0-6.0-4.0-6.0-0.0","696","<div><div style=""""><a style=""white-space:pre-wrap;""> while a <= 17:
   a -= 2
   a += 6</a><a style=""""></a></div></div>","backspace","","1","","","backspace",""
"","html-keyboard-response","172","570649","0.0-6.0-5.0-0.0-0.0","1828","<div><div style=""""><a style=""white-space:pre-wrap;""> for i in [1, 2]:
   a /= 2</a><a style=""""></a></div></div>","10","10","1","39","for i in [1, 2]:
   a /= 2","10","0"
"","html-keyboard-response","173","572056","0.0-6.0-5.0-1.0-0.0","901","<div><div style=""""><a style=""white-space:pre-wrap;""> for i in [1, 2]:
   a /= 2</a><a style=""""></a></div></div>","5","5","1","39","for i in [1, 2]:
   a /= 2","5","1"
"","html-keyboard-response","174","572785","0.0-6.0-5.0-2.0-0.0","224","<div><div style=""""><a style=""white-space:pre-wrap;""> for i in [1, 2]:
   a /= 2</a><a style=""""></a></div></div>","backspace","","1","","","backspace",""
"","html-keyboard-response","175","579280","0.0-6.0-6.0-0.0-0.0","5987","<div><div style=""""><a style=""white-space:pre-wrap;""> for i in [1, 2, 3]:
   a = round_up(a*1.5)</a><a style=""""></a></div></div>","8","8","1","40","for i in [1, 2, 3]:
   a = round_up(a*1.5)","8","0"
"","html-keyboard-response","176","582001","0.0-6.0-6.0-1.0-0.0","2203","<div><div style=""""><a style=""white-space:pre-wrap;""> for i in [1, 2, 3]:
   a = round_up(a*1.5)</a><a style=""""></a></div></div>","12","12","1","40","for i in [1, 2, 3]:
   a = round_up(a*1.5)","12","1"
"","html-keyboard-response","177","585840","0.0-6.0-6.0-2.0-0.0","3325","<div><div style=""""><a style=""white-space:pre-wrap;""> for i in [1, 2, 3]:
   a = round_up(a*1.5)</a><a style=""""></a></div></div>","18","18","1","40","for i in [1, 2, 3]:
   a = round_up(a*1.5)","18","2"
"","html-keyboard-response","178","586664","0.0-6.0-6.0-3.0-0.0","318","<div><div style=""""><a style=""white-space:pre-wrap;""> for i in [1, 2, 3]:
   a = round_up(a*1.5)</a><a style=""""></a></div></div>","backspace","","1","","","backspace",""
"","html-keyboard-response","179","591112","0.0-6.0-7.0-0.0-0.0","3940","<div><div style=""""><a style=""white-space:pre-wrap;""> for i in [1, 2, 3, 4]:
   a = average(a,2)</a><a style=""""></a></div></div>","8","10","0","41","for i in [1, 2, 3, 4]:
   a = average(a,2)","10","0"
"","html-keyboard-response","181","600553","0.0-6.0-7.0-1.0-0.0","5410","<div><div style=""""><a style=""white-space:pre-wrap;""> for i in [1, 2, 3, 4]:
   a = average(a,2)</a><a style=""""></a></div></div>","6","6","1","41","for i in [1, 2, 3, 4]:
   a = average(a,2)","6","1"
"","html-keyboard-response","182","604440","0.0-6.0-7.0-2.0-0.0","3371","<div><div style=""""><a style=""white-space:pre-wrap;""> for i in [1, 2, 3, 4]:
   a = average(a,2)</a><a style=""""></a></div></div>","4","4","1","41","for i in [1, 2, 3, 4]:
   a = average(a,2)","4","2"
"","html-keyboard-response","183","607600","0.0-6.0-7.0-3.0-0.0","2656","<div><div style=""""><a style=""white-space:pre-wrap;""> for i in [1, 2, 3, 4]:
   a = average(a,2)</a><a style=""""></a></div></div>","3","3","1","41","for i in [1, 2, 3, 4]:
   a = average(a,2)","3","3"
"","html-keyboard-response","184","608408","0.0-6.0-7.0-4.0-0.0","292","<div><div style=""""><a style=""white-space:pre-wrap;""> for i in [1, 2, 3, 4]:
   a = average(a,2)</a><a style=""""></a></div></div>","backspace","","1","","","backspace",""
"","html-keyboard-response","185","611664","0.0-6.0-8.0-0.0-0.0","2751","<div><div style=""""><a style=""white-space:pre-wrap;""> while a <= 5:
   a += 7
   a /= 2</a><a style=""""></a></div></div>","10","10","1","42","while a <= 5:
   a += 7
   a /= 2","10","0"
"","html-keyboard-response","186","614192","0.0-6.0-8.0-1.0-0.0","2011","<div><div style=""""><a style=""white-space:pre-wrap;""> while a <= 5:
   a += 7
   a /= 2</a><a style=""""></a></div></div>","5","5","1","42","while a <= 5:
   a += 7
   a /= 2","5","1"
"","html-keyboard-response","187","616208","0.0-6.0-8.0-2.0-0.0","1507","<div><div style=""""><a style=""white-space:pre-wrap;""> while a <= 5:
   a += 7
   a /= 2</a><a style=""""></a></div></div>","12","12","1","42","while a <= 5:
   a += 7
   a /= 2","12","2"
"","html-keyboard-response","188","618040","0.0-6.0-8.0-3.0-0.0","1329","<div><div style=""""><a style=""white-space:pre-wrap;""> while a <= 5:
   a += 7
   a /= 2</a><a style=""""></a></div></div>","6","6","1","42","while a <= 5:
   a += 7
   a /= 2","6","3"
"","html-keyboard-response","189","619872","0.0-6.0-8.0-4.0-0.0","1319","<div><div style=""""><a style=""white-space:pre-wrap;""> while a <= 5:
   a += 7
   a /= 2</a><a style=""""></a></div></div>","backspace","","1","","","backspace",""
"","html-keyboard-response","190","622360","0.0-6.0-9.0-0.0-0.0","1983","<div><div style=""""><a style=""white-space:pre-wrap;""> while a <= 15:
   a += 3</a><a style=""""></a></div></div>","8","9","0","43","while a <= 15:
   a += 3","9","0"
"","html-keyboard-response","192","627256","0.0-6.0-9.0-1.0-0.0","883","<div><div style=""""><a style=""white-space:pre-wrap;""> while a <= 15:
   a += 3</a><a style=""""></a></div></div>","12","12","1","43","while a <= 15:
   a += 3","12","1"
"","html-keyboard-response","193","629736","0.0-6.0-9.0-2.0-0.0","1971","<div><div style=""""><a style=""white-space:pre-wrap;""> while a <= 15:
   a += 3</a><a style=""""></a></div></div>","15","15","1","43","while a <= 15:
   a += 3","15","2"
"","html-keyboard-response","194","630488","0.0-6.0-9.0-3.0-0.0","247","<div><div style=""""><a style=""white-space:pre-wrap;""> while a <= 15:
   a += 3</a><a style=""""></a></div></div>","18","18","1","43","while a <= 15:
   a += 3","18","3"
"","html-keyboard-response","195","631208","0.0-6.0-9.0-4.0-0.0","204","<div><div style=""""><a style=""white-space:pre-wrap;""> while a <= 15:
   a += 3</a><a style=""""></a></div></div>","backspace","","1","","","backspace",""
"","html-keyboard-response","196","635624","0.0-6.0-10.0-0.0-0.0","3905","<div><div style=""""><a style=""white-space:pre-wrap;""> while a >= 12:
   a /= 3
   a *= 2</a><a style=""""></a></div></div>","6","6","1","44","while a >= 12:
   a /= 3
   a *= 2","6","0"
"","html-keyboard-response","197","636968","0.0-6.0-10.0-1.0-0.0","831","<div><div style=""""><a style=""white-space:pre-wrap;""> while a >= 12:
   a /= 3
   a *= 2</a><a style=""""></a></div></div>","12","12","1","44","while a >= 12:
   a /= 3
   a *= 2","12","1"
"","html-keyboard-response","198","639312","0.0-6.0-10.0-2.0-0.0","1834","<div><div style=""""><a style=""white-space:pre-wrap;""> while a >= 12:
   a /= 3
   a *= 2</a><a style=""""></a></div></div>","4","4","1","44","while a >= 12:
   a /= 3
   a *= 2","4","2"
"","html-keyboard-response","199","640704","0.0-6.0-10.0-3.0-0.0","884","<div><div style=""""><a style=""white-space:pre-wrap;""> while a >= 12:
   a /= 3
   a *= 2</a><a style=""""></a></div></div>","8","8","1","44","while a >= 12:
   a /= 3
   a *= 2","8","3"
"","html-keyboard-response","200","643424","0.0-6.0-10.0-4.0-0.0","2205","<div><div style=""""><a style=""white-space:pre-wrap;""> while a >= 12:
   a /= 3
   a *= 2</a><a style=""""></a></div></div>","backspace","","1","","","backspace",""
"","html-keyboard-response","201","647321","0.0-6.0-11.0-0.0-0.0","3391","<div><div style=""""><a style=""white-space:pre-wrap;""> for i in [1, 2, 3]:
   a *= 2
   a -= 9</a><a style=""""></a></div></div>","16","16","1","45","for i in [1, 2, 3]:
   a *= 2
   a -= 9","16","0"
"","html-keyboard-response","202","648896","0.0-6.0-11.0-1.0-0.0","1061","<div><div style=""""><a style=""white-space:pre-wrap;""> for i in [1, 2, 3]:
   a *= 2
   a -= 9</a><a style=""""></a></div></div>","9","7","0","45","for i in [1, 2, 3]:
   a *= 2
   a -= 9","7","1"
"","html-keyboard-response","204","654536","0.0-6.0-11.0-2.0-0.0","1624","<div><div style=""""><a style=""white-space:pre-wrap;""> for i in [1, 2, 3]:
   a *= 2
   a -= 9</a><a style=""""></a></div></div>","14","14","1","45","for i in [1, 2, 3]:
   a *= 2
   a -= 9","14","2"
"","html-keyboard-response","205","659016","0.0-6.0-11.0-3.0-0.0","3978","<div><div style=""""><a style=""white-space:pre-wrap;""> for i in [1, 2, 3]:
   a *= 2
   a -= 9</a><a style=""""></a></div></div>","5","5","1","45","for i in [1, 2, 3]:
   a *= 2
   a -= 9","5","3"
"","html-keyboard-response","206","661512","0.0-6.0-11.0-4.0-0.0","1989","<div><div style=""""><a style=""white-space:pre-wrap;""> for i in [1, 2, 3]:
   a *= 2
   a -= 9</a><a style=""""></a></div></div>","10","10","1","45","for i in [1, 2, 3]:
   a *= 2
   a -= 9","10","4"
"","html-keyboard-response","207","662320","0.0-6.0-11.0-5.0-0.0","291","<div><div style=""""><a style=""white-space:pre-wrap;""> for i in [1, 2, 3]:
   a *= 2
   a -= 9</a><a style=""""></a></div></div>","1","1","1","45","for i in [1, 2, 3]:
   a *= 2
   a -= 9","1","5"
"","html-keyboard-response","208","662992","0.0-6.0-11.0-6.0-0.0","169","<div><div style=""""><a style=""white-space:pre-wrap;""> for i in [1, 2, 3]:
   a *= 2
   a -= 9</a><a style=""""></a></div></div>","backspace","","1","","","backspace",""
"","html-keyboard-response","209","665016","0.0-7.0-1.0","1519","<p style=""font-size: 25px;"">Please press space to start the next program<br>>>>>>></p>"," ","","","","","",""
"","html-keyboard-response","210","666368","0.0-7.0-2.0","1350","<div><div style="" font-size:25px; color:green;""><a style=""white-space:pre-wrap;""> a = 16</a><a style=""""></a></div></div>","","null","","82","a = 16","",""
"","html-keyboard-response","211","669344","0.0-7.0-4.0-0.0-0.0","2472","<div><div style=""""><a style=""white-space:pre-wrap;""> for i in [1, 2]:
   a /= 2</a><a style=""""></a></div></div>","8","8","1","83","for i in [1, 2]:
   a /= 2","8","0"
"","html-keyboard-response","212","671944","0.0-7.0-4.0-1.0-0.0","2097","<div><div style=""""><a style=""white-space:pre-wrap;""> for i in [1, 2]:
   a /= 2</a><a style=""""></a></div></div>","4","4","1","83","for i in [1, 2]:
   a /= 2","4","1"
"","html-keyboard-response","213","673033","0.0-7.0-4.0-2.0-0.0","582","<div><div style=""""><a style=""white-space:pre-wrap;""> for i in [1, 2]:
   a /= 2</a><a style=""""></a></div></div>","backspace","","1","","","backspace",""
"","html-keyboard-response","214","676161","0.0-7.0-5.0-0.0-0.0","2619","<div><div style=""""><a style=""white-space:pre-wrap;""> for i in [1, 2, 3]:
   a = round_up(a*1.5)</a><a style=""""></a></div></div>","6","6","1","84","for i in [1, 2, 3]:
   a = round_up(a*1.5)","6","0"
"","html-keyboard-response","215","677497","0.0-7.0-5.0-1.0-0.0","828","<div><div style=""""><a style=""white-space:pre-wrap;""> for i in [1, 2, 3]:
   a = round_up(a*1.5)</a><a style=""""></a></div></div>","9","9","1","84","for i in [1, 2, 3]:
   a = round_up(a*1.5)","9","1"
"","html-keyboard-response","216","678633","0.0-7.0-5.0-2.0-0.0","631","<div><div style=""""><a style=""white-space:pre-wrap;""> for i in [1, 2, 3]:
   a = round_up(a*1.5)</a><a style=""""></a></div></div>","12","14","0","84","for i in [1, 2, 3]:
   a = round_up(a*1.5)","14","2"
"","html-keyboard-response","218","683041","0.0-7.0-5.0-3.0-0.0","396","<div><div style=""""><a style=""white-space:pre-wrap;""> for i in [1, 2, 3]:
   a = round_up(a*1.5)</a><a style=""""></a></div></div>","backspace","","1","","","backspace",""
"","html-keyboard-response","219","685665","0.0-7.0-6.0-0.0-0.0","2115","<div><div style=""""><a style=""white-space:pre-wrap;""> while a >= 13:
   a += 5
   a -= 6</a><a style=""""></a></div></div>","19","19","1","85","while a >= 13:
   a += 5
   a -= 6","19","0"
"","html-keyboard-response","220","688937","0.0-7.0-6.0-1.0-0.0","2759","<div><div style=""""><a style=""white-space:pre-wrap;""> while a >= 13:
   a += 5
   a -= 6</a><a style=""""></a></div></div>","13","13","1","85","while a >= 13:
   a += 5
   a -= 6","13","1"
"","html-keyboard-response","221","691193","0.0-7.0-6.0-2.0-0.0","1750","<div><div style=""""><a style=""white-space:pre-wrap;""> while a >= 13:
   a += 5
   a -= 6</a><a style=""""></a></div></div>","18","18","1","85","while a >= 13:
   a += 5
   a -= 6","18","2"
"","html-keyboard-response","222","693113","0.0-7.0-6.0-3.0-0.0","1410","<div><div style=""""><a style=""white-space:pre-wrap;""> while a >= 13:
   a += 5
   a -= 6</a><a style=""""></a></div></div>","12","12","1","85","while a >= 13:
   a += 5
   a -= 6","12","3"
"","html-keyboard-response","223","695073","0.0-7.0-6.0-4.0-0.0","1458","<div><div style=""""><a style=""white-space:pre-wrap;""> while a >= 13:
   a += 5
   a -= 6</a><a style=""""></a></div></div>","backspace","","1","","","backspace",""
"","html-keyboard-response","224","703609","0.0-7.0-7.0-0.0-0.0","8032","<div><div style=""""><a style=""white-space:pre-wrap;""> while a >= 6:
   a = average(a,4)</a><a style=""""></a></div></div>","8","8","1","86","while a >= 6:
   a = average(a,4)","8","0"
"","html-keyboard-response","225","707049","0.0-7.0-7.0-1.0-0.0","2932","<div><div style=""""><a style=""white-space:pre-wrap;""> while a >= 6:
   a = average(a,4)</a><a style=""""></a></div></div>","6","6","1","86","while a >= 6:
   a = average(a,4)","6","1"
"","html-keyboard-response","226","710673","0.0-7.0-7.0-2.0-0.0","3111","<div><div style=""""><a style=""white-space:pre-wrap;""> while a >= 6:
   a = average(a,4)</a><a style=""""></a></div></div>","5","5","1","86","while a >= 6:
   a = average(a,4)","5","2"
"","html-keyboard-response","227","711583","0.0-7.0-7.0-3.0-0.0","405","<div><div style=""""><a style=""white-space:pre-wrap;""> while a >= 6:
   a = average(a,4)</a><a style=""""></a></div></div>","backspace","","1","","","backspace",""
"","html-keyboard-response","228","715033","0.0-7.0-8.0-0.0-0.0","2932","<div><div style=""""><a style=""white-space:pre-wrap;""> for i in [1, 2]:
   a *= 3
   a -= 11</a><a style=""""></a></div></div>","15","15","1","87","for i in [1, 2]:
   a *= 3
   a -= 11","15","0"
"","html-keyboard-response","229","717225","0.0-7.0-8.0-1.0-0.0","1683","<div><div style=""""><a style=""white-space:pre-wrap;""> for i in [1, 2]:
   a *= 3
   a -= 11</a><a style=""""></a></div></div>","4","4","1","87","for i in [1, 2]:
   a *= 3
   a -= 11","4","1"
"","html-keyboard-response","230","719249","0.0-7.0-8.0-2.0-0.0","1514","<div><div style=""""><a style=""white-space:pre-wrap;""> for i in [1, 2]:
   a *= 3
   a -= 11</a><a style=""""></a></div></div>","12","12","1","87","for i in [1, 2]:
   a *= 3
   a -= 11","12","2"
"","html-keyboard-response","231","720321","0.0-7.0-8.0-3.0-0.0","565","<div><div style=""""><a style=""white-space:pre-wrap;""> for i in [1, 2]:
   a *= 3
   a -= 11</a><a style=""""></a></div></div>","1","1","1","87","for i in [1, 2]:
   a *= 3
   a -= 11","1","3"
"","html-keyboard-response","232","721169","0.0-7.0-8.0-4.0-0.0","343","<div><div style=""""><a style=""white-space:pre-wrap;""> for i in [1, 2]:
   a *= 3
   a -= 11</a><a style=""""></a></div></div>","backspace","","1","","","backspace",""
"","html-keyboard-response","233","725577","0.0-7.0-9.0-0.0-0.0","3894","<div><div style=""""><a style=""white-space:pre-wrap;""> while a <= 7:
   a *= 6
   a /= 2</a><a style=""""></a></div></div>","6","6","1","88","while a <= 7:
   a *= 6
   a /= 2","6","0"
"","html-keyboard-response","234","726817","0.0-7.0-9.0-1.0-0.0","724","<div><div style=""""><a style=""white-space:pre-wrap;""> while a <= 7:
   a *= 6
   a /= 2</a><a style=""""></a></div></div>","3","3","1","88","while a <= 7:
   a *= 6
   a /= 2","3","1"
"","html-keyboard-response","235","728321","0.0-7.0-9.0-2.0-0.0","999","<div><div style=""""><a style=""white-space:pre-wrap;""> while a <= 7:
   a *= 6
   a /= 2</a><a style=""""></a></div></div>","18","18","1","88","while a <= 7:
   a *= 6
   a /= 2","18","2"
"","html-keyboard-response","236","729785","0.0-7.0-9.0-3.0-0.0","956","<div><div style=""""><a style=""white-space:pre-wrap;""> while a <= 7:
   a *= 6
   a /= 2</a><a style=""""></a></div></div>","9","9","1","88","while a <= 7:
   a *= 6
   a /= 2","9","3"
"","html-keyboard-response","237","730369","0.0-7.0-9.0-4.0-0.0","80","<div><div style=""""><a style=""white-space:pre-wrap;""> while a <= 7:
   a *= 6
   a /= 2</a><a style=""""></a></div></div>","backspace","","1","","","backspace",""
"","html-keyboard-response","238","733449","0.0-7.0-10.0-0.0-0.0","2565","<div><div style=""""><a style=""white-space:pre-wrap;""> while a >= 7:
   a -= 2</a><a style=""""></a></div></div>","7","7","1","89","while a >= 7:
   a -= 2","7","0"
"","html-keyboard-response","239","735064","0.0-7.0-10.0-1.0-0.0","1098","<div><div style=""""><a style=""white-space:pre-wrap;""> while a >= 7:
   a -= 2</a><a style=""""></a></div></div>","5","5","1","89","while a >= 7:
   a -= 2","5","1"
"","html-keyboard-response","240","735889","0.0-7.0-10.0-2.0-0.0","319","<div><div style=""""><a style=""white-space:pre-wrap;""> while a >= 7:
   a -= 2</a><a style=""""></a></div></div>","backspace","","1","","","backspace",""
"","html-keyboard-response","241","739401","0.0-7.0-11.0-0.0-0.0","3004","<div><div style=""""><a style=""white-space:pre-wrap;""> for i in [1, 2]:
   a += 9
   a /= 2</a><a style=""""></a></div></div>","14","14","1","90","for i in [1, 2]:
   a += 9
   a /= 2","14","0"
"","html-keyboard-response","242","740657","0.0-7.0-11.0-1.0-0.0","746","<div><div style=""""><a style=""white-space:pre-wrap;""> for i in [1, 2]:
   a += 9
   a /= 2</a><a style=""""></a></div></div>","7","7","1","90","for i in [1, 2]:
   a += 9
   a /= 2","7","1"
"","html-keyboard-response","243","742961","0.0-7.0-11.0-2.0-0.0","1788","<div><div style=""""><a style=""white-space:pre-wrap;""> for i in [1, 2]:
   a += 9
   a /= 2</a><a style=""""></a></div></div>","16","16","1","90","for i in [1, 2]:
   a += 9
   a /= 2","16","2"
"","html-keyboard-response","244","744537","0.0-7.0-11.0-3.0-0.0","1065","<div><div style=""""><a style=""white-space:pre-wrap;""> for i in [1, 2]:
   a += 9
   a /= 2</a><a style=""""></a></div></div>","8","8","1","90","for i in [1, 2]:
   a += 9
   a /= 2","8","3"
"","html-keyboard-response","245","745505","0.0-7.0-11.0-4.0-0.0","462","<div><div style=""""><a style=""white-space:pre-wrap;""> for i in [1, 2]:
   a += 9
   a /= 2</a><a style=""""></a></div></div>","backspace","","1","","","backspace",""
"","html-keyboard-response","246","936241","0.0-8.0-0.0-0.0","190234","<p style=""position:absolute; top:30%; font-size:25px; color:green;"" >Take a short break now</p>"," ","","","","","",""
"","html-keyboard-response","247","937080","0.0-8.0-1.0","838","<p style=""font-size: 25px;"">Please press space to start the next program<br>>>>>>></p>"," ","","","","","",""
"","html-keyboard-response","248","938656","0.0-8.0-2.0","1574","<div><div style="" font-size:25px; color:green;""><a style=""white-space:pre-wrap;""> a = 18</a><a style=""""></a></div></div>","","null","","19","a = 18","",""
"","html-keyboard-response","249","941184","0.0-8.0-4.0-0.0-0.0","2016","<div><div style=""""><a style=""white-space:pre-wrap;""> for i in [1, 2]:
   a /= 3
   a *= 2</a><a style=""""></a></div></div>","6","6","1","20","for i in [1, 2]:
   a /= 3
   a *= 2","6","0"
"","html-keyboard-response","250","942312","0.0-8.0-4.0-1.0-0.0","617","<div><div style=""""><a style=""white-space:pre-wrap;""> for i in [1, 2]:
   a /= 3
   a *= 2</a><a style=""""></a></div></div>","12","12","1","20","for i in [1, 2]:
   a /= 3
   a *= 2","12","1"
"","html-keyboard-response","251","944904","0.0-8.0-4.0-2.0-0.0","2076","<div><div style=""""><a style=""white-space:pre-wrap;""> for i in [1, 2]:
   a /= 3
   a *= 2</a><a style=""""></a></div></div>","4","4","1","20","for i in [1, 2]:
   a /= 3
   a *= 2","4","2"
"","html-keyboard-response","252","945864","0.0-8.0-4.0-3.0-0.0","443","<div><div style=""""><a style=""white-space:pre-wrap;""> for i in [1, 2]:
   a /= 3
   a *= 2</a><a style=""""></a></div></div>","8","8","1","20","for i in [1, 2]:
   a /= 3
   a *= 2","8","3"
"","html-keyboard-response","253","946841","0.0-8.0-4.0-4.0-0.0","470","<div><div style=""""><a style=""white-space:pre-wrap;""> for i in [1, 2]:
   a /= 3
   a *= 2</a><a style=""""></a></div></div>","backspace","","1","","","backspace",""
"","html-keyboard-response","254","950272","0.0-8.0-5.0-0.0-0.0","2920","<div><div style=""""><a style=""white-space:pre-wrap;""> for i in [1, 2, 3]:
   a /= 2</a><a style=""""></a></div></div>","6","4","0","21","for i in [1, 2, 3]:
   a /= 2","4","0"
"","html-keyboard-response","256","954792","0.0-8.0-5.0-1.0-0.0","494","<div><div style=""""><a style=""white-space:pre-wrap;""> for i in [1, 2, 3]:
   a /= 2</a><a style=""""></a></div></div>","2","2","1","21","for i in [1, 2, 3]:
   a /= 2","2","1"
"","html-keyboard-response","257","955472","0.0-8.0-5.0-2.0-0.0","164","<div><div style=""""><a style=""white-space:pre-wrap;""> for i in [1, 2, 3]:
   a /= 2</a><a style=""""></a></div></div>","1","1","1","21","for i in [1, 2, 3]:
   a /= 2","1","2"
"","html-keyboard-response","258","956232","0.0-8.0-5.0-3.0-0.0","257","<div><div style=""""><a style=""white-space:pre-wrap;""> for i in [1, 2, 3]:
   a /= 2</a><a style=""""></a></div></div>","backspace","","1","","","backspace",""
"","html-keyboard-response","259","959769","0.0-8.0-6.0-0.0-0.0","3020","<div><div style=""""><a style=""white-space:pre-wrap;""> while a <= 7:
   a += 2</a><a style=""""></a></div></div>","3","3","1","22","while a <= 7:
   a += 2","3","0"
"","html-keyboard-response","260","961160","0.0-8.0-6.0-1.0-0.0","878","<div><div style=""""><a style=""white-space:pre-wrap;""> while a <= 7:
   a += 2</a><a style=""""></a></div></div>","5","5","1","22","while a <= 7:
   a += 2","5","1"
"","html-keyboard-response","261","962168","0.0-8.0-6.0-2.0-0.0","505","<div><div style=""""><a style=""white-space:pre-wrap;""> while a <= 7:
   a += 2</a><a style=""""></a></div></div>","7","7","1","22","while a <= 7:
   a += 2","7","2"
"","html-keyboard-response","262","962936","0.0-8.0-6.0-3.0-0.0","263","<div><div style=""""><a style=""white-space:pre-wrap;""> while a <= 7:
   a += 2</a><a style=""""></a></div></div>","9","9","1","22","while a <= 7:
   a += 2","9","3"
"","html-keyboard-response","263","963952","0.0-8.0-6.0-4.0-0.0","499","<div><div style=""""><a style=""white-space:pre-wrap;""> while a <= 7:
   a += 2</a><a style=""""></a></div></div>","backspace","","1","","","backspace",""
"","html-keyboard-response","264","967952","0.0-8.0-7.0-0.0-0.0","3489","<div><div style=""""><a style=""white-space:pre-wrap;""> for i in [1, 2]:
   a += 9
   a /= 3</a><a style=""""></a></div></div>","18","18","1","23","for i in [1, 2]:
   a += 9
   a /= 3","18","0"
"","html-keyboard-response","265","969472","0.0-8.0-7.0-1.0-0.0","1016","<div><div style=""""><a style=""white-space:pre-wrap;""> for i in [1, 2]:
   a += 9
   a /= 3</a><a style=""""></a></div></div>","6","6","1","23","for i in [1, 2]:
   a += 9
   a /= 3","6","1"
"","html-keyboard-response","266","972409","0.0-8.0-7.0-2.0-0.0","2432","<div><div style=""""><a style=""white-space:pre-wrap;""> for i in [1, 2]:
   a += 9
   a /= 3</a><a style=""""></a></div></div>","12","15","0","23","for i in [1, 2]:
   a += 9
   a /= 3","15","2"
"","html-keyboard-response","268","976760","0.0-8.0-7.0-3.0-0.0","322","<div><div style=""""><a style=""white-space:pre-wrap;""> for i in [1, 2]:
   a += 9
   a /= 3</a><a style=""""></a></div></div>","5","5","1","23","for i in [1, 2]:
   a += 9
   a /= 3","5","3"
"","html-keyboard-response","269","978184","0.0-8.0-7.0-4.0-0.0","910","<div><div style=""""><a style=""white-space:pre-wrap;""> for i in [1, 2]:
   a += 9
   a /= 3</a><a style=""""></a></div></div>","backspace","","1","","","backspace",""
"","html-keyboard-response","270","984481","0.0-8.0-8.0-0.0-0.0","5793","<div><div style=""""><a style=""white-space:pre-wrap;""> while a <= 11:
   a = round_down(a*1.5)</a><a style=""""></a></div></div>","7","7","1","24","while a <= 11:
   a = round_down(a*1.5)","7","0"
"","html-keyboard-response","271","988488","0.0-8.0-8.0-1.0-0.0","3491","<div><div style=""""><a style=""white-space:pre-wrap;""> while a <= 11:
   a = round_down(a*1.5)</a><a style=""""></a></div></div>","10","10","1","24","while a <= 11:
   a = round_down(a*1.5)","10","1"
"","html-keyboard-response","272","992176","0.0-8.0-8.0-2.0-0.0","3179","<div><div style=""""><a style=""white-space:pre-wrap;""> while a <= 11:
   a = round_down(a*1.5)</a><a style=""""></a></div></div>","15","15","1","24","while a <= 11:
   a = round_down(a*1.5)","15","2"
"","html-keyboard-response","273","993288","0.0-8.0-8.0-3.0-0.0","600","<div><div style=""""><a style=""white-space:pre-wrap;""> while a <= 11:
   a = round_down(a*1.5)</a><a style=""""></a></div></div>","backspace","","1","","","backspace",""
"","html-keyboard-response","274","997353","0.0-8.0-9.0-0.0-0.0","3556","<div><div style=""""><a style=""white-space:pre-wrap;""> while a >= 8:
   a = average(a,3)</a><a style=""""></a></div></div>","9","9","1","25","while a >= 8:
   a = average(a,3)","9","0"
"","html-keyboard-response","275","999337","0.0-8.0-9.0-1.0-0.0","1471","<div><div style=""""><a style=""white-space:pre-wrap;""> while a >= 8:
   a = average(a,3)</a><a style=""""></a></div></div>","6","6","1","25","while a >= 8:
   a = average(a,3)","6","1"
"","html-keyboard-response","276","1010617","0.0-8.0-9.0-2.0-0.0","10765","<div><div style=""""><a style=""white-space:pre-wrap;""> while a >= 8:
   a = average(a,3)</a><a style=""""></a></div></div>","backspace","","1","","","backspace",""
"","html-keyboard-response","277","1013793","0.0-8.0-10.0-0.0-0.0","2660","<div><div style=""""><a style=""white-space:pre-wrap;""> for i in [1, 2, 3]:
   a *= 2
   a -= 5</a><a style=""""></a></div></div>","12","12","1","26","for i in [1, 2, 3]:
   a *= 2
   a -= 5","12","0"
"","html-keyboard-response","278","1015177","0.0-8.0-10.0-1.0-0.0","872","<div><div style=""""><a style=""white-space:pre-wrap;""> for i in [1, 2, 3]:
   a *= 2
   a -= 5</a><a style=""""></a></div></div>","7","7","1","26","for i in [1, 2, 3]:
   a *= 2
   a -= 5","7","1"
"","html-keyboard-response","279","1018337","0.0-8.0-10.0-2.0-0.0","2648","<div><div style=""""><a style=""white-space:pre-wrap;""> for i in [1, 2, 3]:
   a *= 2
   a -= 5</a><a style=""""></a></div></div>","14","14","1","26","for i in [1, 2, 3]:
   a *= 2
   a -= 5","14","2"
"","html-keyboard-response","280","1020497","0.0-8.0-10.0-3.0-0.0","1646","<div><div style=""""><a style=""white-space:pre-wrap;""> for i in [1, 2, 3]:
   a *= 2
   a -= 5</a><a style=""""></a></div></div>","9","9","1","26","for i in [1, 2, 3]:
   a *= 2
   a -= 5","9","3"
"","html-keyboard-response","281","1022601","0.0-8.0-10.0-4.0-0.0","1587","<div><div style=""""><a style=""white-space:pre-wrap;""> for i in [1, 2, 3]:
   a *= 2
   a -= 5</a><a style=""""></a></div></div>","18","18","1","26","for i in [1, 2, 3]:
   a *= 2
   a -= 5","18","4"
"","html-keyboard-response","282","1024257","0.0-8.0-10.0-5.0-0.0","1141","<div><div style=""""><a style=""white-space:pre-wrap;""> for i in [1, 2, 3]:
   a *= 2
   a -= 5</a><a style=""""></a></div></div>","13","13","1","26","for i in [1, 2, 3]:
   a *= 2
   a -= 5","13","5"
"","html-keyboard-response","283","1025416","0.0-8.0-10.0-6.0-0.0","647","<div><div style=""""><a style=""white-space:pre-wrap;""> for i in [1, 2, 3]:
   a *= 2
   a -= 5</a><a style=""""></a></div></div>","backspace","","1","","","backspace",""
"","html-keyboard-response","284","1028889","0.0-8.0-11.0-0.0-0.0","2967","<div><div style=""""><a style=""white-space:pre-wrap;""> for i in [1, 2, 3]:
   a += 4
   a -= 7</a><a style=""""></a></div></div>","17","17","1","27","for i in [1, 2, 3]:
   a += 4
   a -= 7","17","0"
"","html-keyboard-response","285","1030249","0.0-8.0-11.0-1.0-0.0","853","<div><div style=""""><a style=""white-space:pre-wrap;""> for i in [1, 2, 3]:
   a += 4
   a -= 7</a><a style=""""></a></div></div>","10","10","1","27","for i in [1, 2, 3]:
   a += 4
   a -= 7","10","1"
"","html-keyboard-response","286","1031297","0.0-8.0-11.0-2.0-0.0","538","<div><div style=""""><a style=""white-space:pre-wrap;""> for i in [1, 2, 3]:
   a += 4
   a -= 7</a><a style=""""></a></div></div>","14","14","1","27","for i in [1, 2, 3]:
   a += 4
   a -= 7","14","2"
"","html-keyboard-response","287","1032625","0.0-8.0-11.0-3.0-0.0","824","<div><div style=""""><a style=""white-space:pre-wrap;""> for i in [1, 2, 3]:
   a += 4
   a -= 7</a><a style=""""></a></div></div>","7","7","1","27","for i in [1, 2, 3]:
   a += 4
   a -= 7","7","3"
"","html-keyboard-response","288","1035225","0.0-8.0-11.0-4.0-0.0","2088","<div><div style=""""><a style=""white-space:pre-wrap;""> for i in [1, 2, 3]:
   a += 4
   a -= 7</a><a style=""""></a></div></div>","11","11","1","27","for i in [1, 2, 3]:
   a += 4
   a -= 7","11","4"
"","html-keyboard-response","289","1036585","0.0-8.0-11.0-5.0-0.0","850","<div><div style=""""><a style=""white-space:pre-wrap;""> for i in [1, 2, 3]:
   a += 4
   a -= 7</a><a style=""""></a></div></div>","6","4","0","27","for i in [1, 2, 3]:
   a += 4
   a -= 7","4","5"
"","html-keyboard-response","291","1041216","0.0-8.0-11.0-6.0-0.0","617","<div><div style=""""><a style=""white-space:pre-wrap;""> for i in [1, 2, 3]:
   a += 4
   a -= 7</a><a style=""""></a></div></div>","backspace","","1","","","backspace",""
"","html-keyboard-response","292","1042809","0.0-9.0-1.0","1090","<p style=""font-size: 25px;"">Please press space to start the next program<br>>>>>>></p>"," ","","","","","",""
"","html-keyboard-response","293","1044793","0.0-9.0-2.0","1982","<div><div style="" font-size:25px; color:green;""><a style=""white-space:pre-wrap;""> a = 11</a><a style=""""></a></div></div>","","null","","64","a = 11","",""
"","html-keyboard-response","294","1047897","0.0-9.0-4.0-0.0-0.0","2595","<div><div style=""""><a style=""white-space:pre-wrap;""> while a >= 5:
   a += 4
   a /= 3</a><a style=""""></a></div></div>","15","15","1","65","while a >= 5:
   a += 4
   a /= 3","15","0"
"","html-keyboard-response","295","1049281","0.0-9.0-4.0-1.0-0.0","878","<div><div style=""""><a style=""white-space:pre-wrap;""> while a >= 5:
   a += 4
   a /= 3</a><a style=""""></a></div></div>","5","5","1","65","while a >= 5:
   a += 4
   a /= 3","5","1"
"","html-keyboard-response","296","1051185","0.0-9.0-4.0-2.0-0.0","1401","<div><div style=""""><a style=""white-space:pre-wrap;""> while a >= 5:
   a += 4
   a /= 3</a><a style=""""></a></div></div>","9","9","1","65","while a >= 5:
   a += 4
   a /= 3","9","2"
"","html-keyboard-response","297","1053233","0.0-9.0-4.0-3.0-0.0","1533","<div><div style=""""><a style=""white-space:pre-wrap;""> while a >= 5:
   a += 4
   a /= 3</a><a style=""""></a></div></div>","3","3","1","65","while a >= 5:
   a += 4
   a /= 3","3","3"
"","html-keyboard-response","298","1053921","0.0-9.0-4.0-4.0-0.0","181","<div><div style=""""><a style=""white-space:pre-wrap;""> while a >= 5:
   a += 4
   a /= 3</a><a style=""""></a></div></div>","backspace","","1","","","backspace",""
"","html-keyboard-response","299","1065049","0.0-9.0-5.0-0.0-0.0","10621","<div><div style=""""><a style=""white-space:pre-wrap;""> while a <= 11:
   a = round_down(a*2.5)</a><a style=""""></a></div></div>","7","7","1","66","while a <= 11:
   a = round_down(a*2.5)","7","0"
"","html-keyboard-response","300","1069313","0.0-9.0-5.0-1.0-0.0","3754","<div><div style=""""><a style=""white-space:pre-wrap;""> while a <= 11:
   a = round_down(a*2.5)</a><a style=""""></a></div></div>","17","17","1","66","while a <= 11:
   a = round_down(a*2.5)","17","1"
"","html-keyboard-response","301","1070664","0.0-9.0-5.0-2.0-0.0","838","<div><div style=""""><a style=""white-space:pre-wrap;""> while a <= 11:
   a = round_down(a*2.5)</a><a style=""""></a></div></div>","backspace","","1","","","backspace",""
"","html-keyboard-response","302","1075008","0.0-9.0-6.0-0.0-0.0","3828","<div><div style=""""><a style=""white-space:pre-wrap;""> for i in [1, 2, 3, 4]:
   a = average(a,1)</a><a style=""""></a></div></div>","9","9","1","67","for i in [1, 2, 3, 4]:
   a = average(a,1)","9","0"
"","html-keyboard-response","303","1077073","0.0-9.0-6.0-1.0-0.0","1551","<div><div style=""""><a style=""white-space:pre-wrap;""> for i in [1, 2, 3, 4]:
   a = average(a,1)</a><a style=""""></a></div></div>","5","5","1","67","for i in [1, 2, 3, 4]:
   a = average(a,1)","5","1"
"","html-keyboard-response","304","1079712","0.0-9.0-6.0-2.0-0.0","2133","<div><div style=""""><a style=""white-space:pre-wrap;""> for i in [1, 2, 3, 4]:
   a = average(a,1)</a><a style=""""></a></div></div>","3","3","1","67","for i in [1, 2, 3, 4]:
   a = average(a,1)","3","2"
"","html-keyboard-response","305","1081145","0.0-9.0-6.0-3.0-0.0","926","<div><div style=""""><a style=""white-space:pre-wrap;""> for i in [1, 2, 3, 4]:
   a = average(a,1)</a><a style=""""></a></div></div>","2","2","1","67","for i in [1, 2, 3, 4]:
   a = average(a,1)","2","3"
"","html-keyboard-response","306","1082088","0.0-9.0-6.0-4.0-0.0","437","<div><div style=""""><a style=""white-space:pre-wrap;""> for i in [1, 2, 3, 4]:
   a = average(a,1)</a><a style=""""></a></div></div>","backspace","","1","","","backspace",""
"","html-keyboard-response","307","1085000","0.0-9.0-7.0-0.0-0.0","2395","<div><div style=""""><a style=""white-space:pre-wrap;""> while a <= 10:
   a *= 3
   a -= 1</a><a style=""""></a></div></div>","6","6","1","68","while a <= 10:
   a *= 3
   a -= 1","6","0"
"","html-keyboard-response","308","1086305","0.0-9.0-7.0-1.0-0.0","790","<div><div style=""""><a style=""white-space:pre-wrap;""> while a <= 10:
   a *= 3
   a -= 1</a><a style=""""></a></div></div>","5","5","1","68","while a <= 10:
   a *= 3
   a -= 1","5","1"
"","html-keyboard-response","309","1087601","0.0-9.0-7.0-2.0-0.0","791","<div><div style=""""><a style=""white-space:pre-wrap;""> while a <= 10:
   a *= 3
   a -= 1</a><a style=""""></a></div></div>","15","15","1","68","while a <= 10:
   a *= 3
   a -= 1","15","2"
"","html-keyboard-response","310","1088560","0.0-9.0-7.0-3.0-0.0","456","<div><div style=""""><a style=""white-space:pre-wrap;""> while a <= 10:
   a *= 3
   a -= 1</a><a style=""""></a></div></div>","14","14","1","68","while a <= 10:
   a *= 3
   a -= 1","14","3"
"","html-keyboard-response","311","1089353","0.0-9.0-7.0-4.0-0.0","284","<div><div style=""""><a style=""white-space:pre-wrap;""> while a <= 10:
   a *= 3
   a -= 1</a><a style=""""></a></div></div>","backspace","","1","","","backspace",""
"","html-keyboard-response","312","1092137","0.0-9.0-8.0-0.0-0.0","2272","<div><div style=""""><a style=""white-space:pre-wrap;""> while a >= 4:
   a -= 5
   a += 1</a><a style=""""></a></div></div>","9","9","1","69","while a >= 4:
   a -= 5
   a += 1","9","0"
"","html-keyboard-response","313","1093361","0.0-9.0-8.0-1.0-0.0","721","<div><div style=""""><a style=""white-space:pre-wrap;""> while a >= 4:
   a -= 5
   a += 1</a><a style=""""></a></div></div>","10","10","1","69","while a >= 4:
   a -= 5
   a += 1","10","1"
"","html-keyboard-response","314","1094425","0.0-9.0-8.0-2.0-0.0","552","<div><div style=""""><a style=""white-space:pre-wrap;""> while a >= 4:
   a -= 5
   a += 1</a><a style=""""></a></div></div>","5","5","1","69","while a >= 4:
   a -= 5
   a += 1","5","2"
"","html-keyboard-response","315","1095441","0.0-9.0-8.0-3.0-0.0","510","<div><div style=""""><a style=""white-space:pre-wrap;""> while a >= 4:
   a -= 5
   a += 1</a><a style=""""></a></div></div>","6","6","1","69","while a >= 4:
   a -= 5
   a += 1","6","3"
"","html-keyboard-response","316","1097217","0.0-9.0-8.0-4.0-0.0","1273","<div><div style=""""><a style=""white-space:pre-wrap;""> while a >= 4:
   a -= 5
   a += 1</a><a style=""""></a></div></div>","1","1","1","69","while a >= 4:
   a -= 5
   a += 1","1","4"
"","html-keyboard-response","317","1098177","0.0-9.0-8.0-5.0-0.0","457","<div><div style=""""><a style=""white-space:pre-wrap;""> while a >= 4:
   a -= 5
   a += 1</a><a style=""""></a></div></div>","2","2","1","69","while a >= 4:
   a -= 5
   a += 1","2","5"
"","html-keyboard-response","318","1098817","0.0-9.0-8.0-6.0-0.0","131","<div><div style=""""><a style=""white-space:pre-wrap;""> while a >= 4:
   a -= 5
   a += 1</a><a style=""""></a></div></div>","backspace","","1","","","backspace",""
"","html-keyboard-response","319","1101201","0.0-9.0-9.0-0.0-0.0","1872","<div><div style=""""><a style=""white-space:pre-wrap;""> for i in [1, 2]:
   a *= 3</a><a style=""""></a></div></div>","6","6","1","70","for i in [1, 2]:
   a *= 3","6","0"
"","html-keyboard-response","320","1102777","0.0-9.0-9.0-1.0-0.0","1062","<div><div style=""""><a style=""white-space:pre-wrap;""> for i in [1, 2]:
   a *= 3</a><a style=""""></a></div></div>","18","18","1","70","for i in [1, 2]:
   a *= 3","18","1"
"","html-keyboard-response","321","1103648","0.0-9.0-9.0-2.0-0.0","361","<div><div style=""""><a style=""white-space:pre-wrap;""> for i in [1, 2]:
   a *= 3</a><a style=""""></a></div></div>","backspace","","1","","","backspace",""
"","html-keyboard-response","322","1105945","0.0-9.0-10.0-0.0-0.0","1780","<div><div style=""""><a style=""white-space:pre-wrap;""> while a >= 11:
   a /= 3
   a *= 2</a><a style=""""></a></div></div>","6","6","1","71","while a >= 11:
   a /= 3
   a *= 2","6","0"
"","html-keyboard-response","323","1107040","0.0-9.0-10.0-1.0-0.0","586","<div><div style=""""><a style=""white-space:pre-wrap;""> while a >= 11:
   a /= 3
   a *= 2</a><a style=""""></a></div></div>","12","12","1","71","while a >= 11:
   a /= 3
   a *= 2","12","1"
"","html-keyboard-response","324","1109329","0.0-9.0-10.0-2.0-0.0","1783","<div><div style=""""><a style=""white-space:pre-wrap;""> while a >= 11:
   a /= 3
   a *= 2</a><a style=""""></a></div></div>","4","4","1","71","while a >= 11:
   a /= 3
   a *= 2","4","2"
"","html-keyboard-response","325","1110785","0.0-9.0-10.0-3.0-0.0","949","<div><div style=""""><a style=""white-space:pre-wrap;""> while a >= 11:
   a /= 3
   a *= 2</a><a style=""""></a></div></div>","8","8","1","71","while a >= 11:
   a /= 3
   a *= 2","8","3"
"","html-keyboard-response","326","1111864","0.0-9.0-10.0-4.0-0.0","576","<div><div style=""""><a style=""white-space:pre-wrap;""> while a >= 11:
   a /= 3
   a *= 2</a><a style=""""></a></div></div>","backspace","","1","","","backspace",""
"","html-keyboard-response","327","1114321","0.0-9.0-11.0-0.0-0.0","1939","<div><div style=""""><a style=""white-space:pre-wrap;""> while a <= 17:
   a += 4</a><a style=""""></a></div></div>","12","12","1","72","while a <= 17:
   a += 4","12","0"
"","html-keyboard-response","328","1116424","0.0-9.0-11.0-1.0-0.0","1598","<div><div style=""""><a style=""white-space:pre-wrap;""> while a <= 17:
   a += 4</a><a style=""""></a></div></div>","16","16","1","72","while a <= 17:
   a += 4","16","1"
"","html-keyboard-response","329","1117680","0.0-9.0-11.0-2.0-0.0","748","<div><div style=""""><a style=""white-space:pre-wrap;""> while a <= 17:
   a += 4</a><a style=""""></a></div></div>","20","20","1","72","while a <= 17:
   a += 4","20","2"
"","html-keyboard-response","330","1118289","0.0-9.0-11.0-3.0-0.0","95","<div><div style=""""><a style=""white-space:pre-wrap;""> while a <= 17:
   a += 4</a><a style=""""></a></div></div>","backspace","","1","","","backspace",""
"","html-keyboard-response","331","1119961","0.0-10.0-1.0","1157","<p style=""font-size: 25px;"">Please press space to start the next program<br>>>>>>></p>"," ","","","","","",""
"","html-keyboard-response","332","1120825","0.0-10.0-2.0","862","<div><div style="" font-size:25px; color:green;""><a style=""white-space:pre-wrap;""> a = 16</a><a style=""""></a></div></div>","","null","","73","a = 16","",""
"","html-keyboard-response","333","1124929","0.0-10.0-4.0-0.0-0.0","3589","<div><div style=""""><a style=""white-space:pre-wrap;""> while a >= 6:
   a /= 2</a><a style=""""></a></div></div>","8","8","1","74","while a >= 6:
   a /= 2","8","0"
"","html-keyboard-response","334","1126032","0.0-10.0-4.0-1.0-0.0","593","<div><div style=""""><a style=""white-space:pre-wrap;""> while a >= 6:
   a /= 2</a><a style=""""></a></div></div>","4","4","1","74","while a >= 6:
   a /= 2","4","1"
"","html-keyboard-response","335","1127008","0.0-10.0-4.0-2.0-0.0","460","<div><div style=""""><a style=""white-space:pre-wrap;""> while a >= 6:
   a /= 2</a><a style=""""></a></div></div>","backspace","","1","","","backspace",""
"","html-keyboard-response","336","1129328","0.0-10.0-5.0-0.0-0.0","1812","<div><div style=""""><a style=""white-space:pre-wrap;""> for i in [1, 2, 3]:
   a = round_up(a*1.5)</a><a style=""""></a></div></div>","6","6","1","75","for i in [1, 2, 3]:
   a = round_up(a*1.5)","6","0"
"","html-keyboard-response","337","1130697","0.0-10.0-5.0-1.0-0.0","865","<div><div style=""""><a style=""white-space:pre-wrap;""> for i in [1, 2, 3]:
   a = round_up(a*1.5)</a><a style=""""></a></div></div>","9","9","1","75","for i in [1, 2, 3]:
   a = round_up(a*1.5)","9","1"
"","html-keyboard-response","338","1132568","0.0-10.0-5.0-2.0-0.0","1369","<div><div style=""""><a style=""white-space:pre-wrap;""> for i in [1, 2, 3]:
   a = round_up(a*1.5)</a><a style=""""></a></div></div>","12","14","0","75","for i in [1, 2, 3]:
   a = round_up(a*1.5)","14","2"
"","html-keyboard-response","340","1137000","0.0-10.0-5.0-3.0-0.0","397","<div><div style=""""><a style=""white-space:pre-wrap;""> for i in [1, 2, 3]:
   a = round_up(a*1.5)</a><a style=""""></a></div></div>","backspace","","1","","","backspace",""
"","html-keyboard-response","341","1139672","0.0-10.0-6.0-0.0-0.0","2162","<div><div style=""""><a style=""white-space:pre-wrap;""> for i in [1, 2]:
   a += 5
   a -= 6</a><a style=""""></a></div></div>","19","19","1","76","for i in [1, 2]:
   a += 5
   a -= 6","19","0"
"","html-keyboard-response","342","1142297","0.0-10.0-6.0-1.0-0.0","2109","<div><div style=""""><a style=""white-space:pre-wrap;""> for i in [1, 2]:
   a += 5
   a -= 6</a><a style=""""></a></div></div>","13","13","1","76","for i in [1, 2]:
   a += 5
   a -= 6","13","1"
"","html-keyboard-response","343","1144504","0.0-10.0-6.0-2.0-0.0","1691","<div><div style=""""><a style=""white-space:pre-wrap;""> for i in [1, 2]:
   a += 5
   a -= 6</a><a style=""""></a></div></div>","18","18","1","76","for i in [1, 2]:
   a += 5
   a -= 6","18","2"
"","html-keyboard-response","344","1146392","0.0-10.0-6.0-3.0-0.0","1378","<div><div style=""""><a style=""white-space:pre-wrap;""> for i in [1, 2]:
   a += 5
   a -= 6</a><a style=""""></a></div></div>","12","12","1","76","for i in [1, 2]:
   a += 5
   a -= 6","12","3"
"","html-keyboard-response","345","1147232","0.0-10.0-6.0-4.0-0.0","325","<div><div style=""""><a style=""white-space:pre-wrap;""> for i in [1, 2]:
   a += 5
   a -= 6</a><a style=""""></a></div></div>","backspace","","1","","","backspace",""
"","html-keyboard-response","346","1151913","0.0-10.0-7.0-0.0-0.0","4163","<div><div style=""""><a style=""white-space:pre-wrap;""> while a >= 6:
   a = average(a,4)</a><a style=""""></a></div></div>","8","8","1","77","while a >= 6:
   a = average(a,4)","8","0"
"","html-keyboard-response","347","1156409","0.0-10.0-7.0-1.0-0.0","3993","<div><div style=""""><a style=""white-space:pre-wrap;""> while a >= 6:
   a = average(a,4)</a><a style=""""></a></div></div>","6","6","1","77","while a >= 6:
   a = average(a,4)","6","1"
"","html-keyboard-response","348","1158344","0.0-10.0-7.0-2.0-0.0","1423","<div><div style=""""><a style=""white-space:pre-wrap;""> while a >= 6:
   a = average(a,4)</a><a style=""""></a></div></div>","5","5","1","77","while a >= 6:
   a = average(a,4)","5","2"
"","html-keyboard-response","349","1159752","0.0-10.0-7.0-3.0-0.0","900","<div><div style=""""><a style=""white-space:pre-wrap;""> while a >= 6:
   a = average(a,4)</a><a style=""""></a></div></div>","backspace","","1","","","backspace",""
"","html-keyboard-response","350","1161464","0.0-10.0-8.0-0.0-0.0","1194","<div><div style=""""><a style=""white-space:pre-wrap;""> while a >= 3:
   a *= 3
   a -= 11</a><a style=""""></a></div></div>","15","15","1","78","while a >= 3:
   a *= 3
   a -= 11","15","0"
"","html-keyboard-response","351","1163201","0.0-10.0-8.0-1.0-0.0","1228","<div><div style=""""><a style=""white-space:pre-wrap;""> while a >= 3:
   a *= 3
   a -= 11</a><a style=""""></a></div></div>","4","4","1","78","while a >= 3:
   a *= 3
   a -= 11","4","1"
"","html-keyboard-response","352","1166767","0.0-10.0-8.0-2.0-0.0","3062","<div><div style=""""><a style=""white-space:pre-wrap;""> while a >= 3:
   a *= 3
   a -= 11</a><a style=""""></a></div></div>","12","12","1","78","while a >= 3:
   a *= 3
   a -= 11","12","2"
"","html-keyboard-response","353","1168488","0.0-10.0-8.0-3.0-0.0","1216","<div><div style=""""><a style=""white-space:pre-wrap;""> while a >= 3:
   a *= 3
   a -= 11</a><a style=""""></a></div></div>","1","1","1","78","while a >= 3:
   a *= 3
   a -= 11","1","3"
"","html-keyboard-response","354","1169400","0.0-10.0-8.0-4.0-0.0","399","<div><div style=""""><a style=""white-space:pre-wrap;""> while a >= 3:
   a *= 3
   a -= 11</a><a style=""""></a></div></div>","backspace","","1","","","backspace",""
"","html-keyboard-response","355","1172152","0.0-10.0-9.0-0.0-0.0","2244","<div><div style=""""><a style=""white-space:pre-wrap;""> while a <= 7:
   a *= 6
   a /= 2</a><a style=""""></a></div></div>","6","6","1","79","while a <= 7:
   a *= 6
   a /= 2","6","0"
"","html-keyboard-response","356","1173152","0.0-10.0-9.0-1.0-0.0","489","<div><div style=""""><a style=""white-space:pre-wrap;""> while a <= 7:
   a *= 6
   a /= 2</a><a style=""""></a></div></div>","3","3","1","79","while a <= 7:
   a *= 6
   a /= 2","3","1"
"","html-keyboard-response","357","1174465","0.0-10.0-9.0-2.0-0.0","805","<div><div style=""""><a style=""white-space:pre-wrap;""> while a <= 7:
   a *= 6
   a /= 2</a><a style=""""></a></div></div>","18","18","1","79","while a <= 7:
   a *= 6
   a /= 2","18","2"
"","html-keyboard-response","358","1175600","0.0-10.0-9.0-3.0-0.0","632","<div><div style=""""><a style=""white-space:pre-wrap;""> while a <= 7:
   a *= 6
   a /= 2</a><a style=""""></a></div></div>","9","9","1","79","while a <= 7:
   a *= 6
   a /= 2","9","3"
"","html-keyboard-response","359","1176184","0.0-10.0-9.0-4.0-0.0","77","<div><div style=""""><a style=""white-space:pre-wrap;""> while a <= 7:
   a *= 6
   a /= 2</a><a style=""""></a></div></div>","backspace","","1","","","backspace",""
"","html-keyboard-response","360","1178201","0.0-10.0-10.0-0.0-0.0","1502","<div><div style=""""><a style=""white-space:pre-wrap;""> for i in [1, 2]:
   a -= 2</a><a style=""""></a></div></div>","7","7","1","80","for i in [1, 2]:
   a -= 2","7","0"
"","html-keyboard-response","361","1178840","0.0-10.0-10.0-1.0-0.0","126","<div><div style=""""><a style=""white-space:pre-wrap;""> for i in [1, 2]:
   a -= 2</a><a style=""""></a></div></div>","5","5","1","80","for i in [1, 2]:
   a -= 2","5","1"
"","html-keyboard-response","362","1179616","0.0-10.0-10.0-2.0-0.0","261","<div><div style=""""><a style=""white-space:pre-wrap;""> for i in [1, 2]:
   a -= 2</a><a style=""""></a></div></div>","backspace","","1","","","backspace",""
"","html-keyboard-response","363","1182752","0.0-10.0-11.0-0.0-0.0","2633","<div><div style=""""><a style=""white-space:pre-wrap;""> for i in [1, 2]:
   a += 9
   a /= 2</a><a style=""""></a></div></div>","15","14","0","81","for i in [1, 2]:
   a += 9
   a /= 2","14","0"
"","html-keyboard-response","365","1187592","0.0-10.0-11.0-1.0-0.0","811","<div><div style=""""><a style=""white-space:pre-wrap;""> for i in [1, 2]:
   a += 9
   a /= 2</a><a style=""""></a></div></div>","7","7","1","81","for i in [1, 2]:
   a += 9
   a /= 2","7","1"
"","html-keyboard-response","366","1189696","0.0-10.0-11.0-2.0-0.0","1596","<div><div style=""""><a style=""white-space:pre-wrap;""> for i in [1, 2]:
   a += 9
   a /= 2</a><a style=""""></a></div></div>","16","16","1","81","for i in [1, 2]:
   a += 9
   a /= 2","16","2"
"","html-keyboard-response","367","1191216","0.0-10.0-11.0-3.0-0.0","1010","<div><div style=""""><a style=""white-space:pre-wrap;""> for i in [1, 2]:
   a += 9
   a /= 2</a><a style=""""></a></div></div>","8","8","1","81","for i in [1, 2]:
   a += 9
   a /= 2","8","3"
"","html-keyboard-response","368","1192031","0.0-10.0-11.0-4.0-0.0","310","<div><div style=""""><a style=""white-space:pre-wrap;""> for i in [1, 2]:
   a += 9
   a /= 2</a><a style=""""></a></div></div>","backspace","","1","","","backspace",""
"","html-keyboard-response","369","1357729","0.0-11.0-0.0-0.0","165193","<p style=""position:absolute; top:30%; font-size:25px; color:green;"" >Take a short break now</p>"," ","","","","","",""
"","html-keyboard-response","370","1358433","0.0-11.0-1.0","702","<p style=""font-size: 25px;"">Please press space to start the next program<br>>>>>>></p>"," ","","","","","",""
"","html-keyboard-response","371","1359289","0.0-11.0-2.0","854","<div><div style="" font-size:25px; color:green;""><a style=""white-space:pre-wrap;""> a = 9</a><a style=""""></a></div></div>","","null","","100","a = 9","",""
"","html-keyboard-response","372","1362248","0.0-11.0-4.0-0.0-0.0","2446","<div><div style=""""><a style=""white-space:pre-wrap;""> while a >= 2:
   a /= 3</a><a style=""""></a></div></div>","3","3","1","101","while a >= 2:
   a /= 3","3","0"
"","html-keyboard-response","373","1363985","0.0-11.0-4.0-1.0-0.0","1224","<div><div style=""""><a style=""white-space:pre-wrap;""> while a >= 2:
   a /= 3</a><a style=""""></a></div></div>","1","1","1","101","while a >= 2:
   a /= 3","1","1"
"","html-keyboard-response","374","1364888","0.0-11.0-4.0-2.0-0.0","395","<div><div style=""""><a style=""white-space:pre-wrap;""> while a >= 2:
   a /= 3</a><a style=""""></a></div></div>","backspace","","1","","","backspace",""
"","html-keyboard-response","375","1366360","0.0-11.0-5.0-0.0-0.0","964","<div><div style=""""><a style=""white-space:pre-wrap;""> while a <= 16:
   a += 6</a><a style=""""></a></div></div>","7","7","1","102","while a <= 16:
   a += 6","7","0"
"","html-keyboard-response","376","1367705","0.0-11.0-5.0-1.0-0.0","830","<div><div style=""""><a style=""white-space:pre-wrap;""> while a <= 16:
   a += 6</a><a style=""""></a></div></div>","13","13","1","102","while a <= 16:
   a += 6","13","1"
"","html-keyboard-response","377","1370361","0.0-11.0-5.0-2.0-0.0","2147","<div><div style=""""><a style=""white-space:pre-wrap;""> while a <= 16:
   a += 6</a><a style=""""></a></div></div>","18","19","0","102","while a <= 16:
   a += 6","19","2"
"","html-keyboard-response","379","1374696","0.0-11.0-5.0-3.0-0.0","323","<div><div style=""""><a style=""white-space:pre-wrap;""> while a <= 16:
   a += 6</a><a style=""""></a></div></div>","backspace","","1","","","backspace",""
"","html-keyboard-response","380","1379176","0.0-11.0-6.0-0.0-0.0","3978","<div><div style=""""><a style=""white-space:pre-wrap;""> for i in [1, 2]:
   a += 1
   a -= 8</a><a style=""""></a></div></div>","19","20","0","103","for i in [1, 2]:
   a += 1
   a -= 8","20","0"
"","html-keyboard-response","382","1383673","0.0-11.0-6.0-1.0-0.0","479","<div><div style=""""><a style=""white-space:pre-wrap;""> for i in [1, 2]:
   a += 1
   a -= 8</a><a style=""""></a></div></div>","2","12","0","103","for i in [1, 2]:
   a += 1
   a -= 8","12","1"
"","html-keyboard-response","384","1391096","0.0-11.0-6.0-2.0-0.0","3413","<div><div style=""""><a style=""white-space:pre-wrap;""> for i in [1, 2]:
   a += 1
   a -= 8</a><a style=""""></a></div></div>","backspace","13","0","103","for i in [1, 2]:
   a += 1
   a -= 8","13","2"
"","html-keyboard-response","386","1398257","0.0-11.0-6.0-3.0-0.0","3140","<div><div style=""""><a style=""white-space:pre-wrap;""> for i in [1, 2]:
   a += 1
   a -= 8</a><a style=""""></a></div></div>","4","5","0","103","for i in [1, 2]:
   a += 1
   a -= 8","5","3"
"","html-keyboard-response","388","1402792","0.0-11.0-6.0-4.0-0.0","525","<div><div style=""""><a style=""white-space:pre-wrap;""> for i in [1, 2]:
   a += 1
   a -= 8</a><a style=""""></a></div></div>","backspace","","1","","","backspace",""
"","html-keyboard-response","389","1405145","0.0-11.0-7.0-0.0-0.0","1846","<div><div style=""""><a style=""white-space:pre-wrap;""> for i in [1, 2]:
   a *= 3
   a -= 9</a><a style=""""></a></div></div>","15","15","1","104","for i in [1, 2]:
   a *= 3
   a -= 9","15","0"
"","html-keyboard-response","390","1409777","0.0-11.0-7.0-1.0-0.0","4130","<div><div style=""""><a style=""white-space:pre-wrap;""> for i in [1, 2]:
   a *= 3
   a -= 9</a><a style=""""></a></div></div>","6","6","1","104","for i in [1, 2]:
   a *= 3
   a -= 9","6","1"
"","html-keyboard-response","391","1411513","0.0-11.0-7.0-2.0-0.0","1231","<div><div style=""""><a style=""white-space:pre-wrap;""> for i in [1, 2]:
   a *= 3
   a -= 9</a><a style=""""></a></div></div>","18","18","1","104","for i in [1, 2]:
   a *= 3
   a -= 9","18","2"
"","html-keyboard-response","392","1413064","0.0-11.0-7.0-3.0-0.0","1039","<div><div style=""""><a style=""white-space:pre-wrap;""> for i in [1, 2]:
   a *= 3
   a -= 9</a><a style=""""></a></div></div>","9","9","1","104","for i in [1, 2]:
   a *= 3
   a -= 9","9","3"
"","html-keyboard-response","393","1413984","0.0-11.0-7.0-4.0-0.0","417","<div><div style=""""><a style=""white-space:pre-wrap;""> for i in [1, 2]:
   a *= 3
   a -= 9</a><a style=""""></a></div></div>","backspace","","1","","","backspace",""
"","html-keyboard-response","394","1417889","0.0-11.0-8.0-0.0-0.0","3399","<div><div style=""""><a style=""white-space:pre-wrap;""> while a >= 3:
   a = average(a, 1)</a><a style=""""></a></div></div>","5","5","1","105","while a >= 3:
   a = average(a, 1)","5","0"
"","html-keyboard-response","395","1421945","0.0-11.0-8.0-1.0-0.0","3549","<div><div style=""""><a style=""white-space:pre-wrap;""> while a >= 3:
   a = average(a, 1)</a><a style=""""></a></div></div>","3","3","1","105","while a >= 3:
   a = average(a, 1)","3","1"
"","html-keyboard-response","396","1422953","0.0-11.0-8.0-2.0-0.0","503","<div><div style=""""><a style=""white-space:pre-wrap;""> while a >= 3:
   a = average(a, 1)</a><a style=""""></a></div></div>","2","2","1","105","while a >= 3:
   a = average(a, 1)","2","2"
"","html-keyboard-response","397","1423929","0.0-11.0-8.0-3.0-0.0","464","<div><div style=""""><a style=""white-space:pre-wrap;""> while a >= 3:
   a = average(a, 1)</a><a style=""""></a></div></div>","backspace","","1","","","backspace",""
"","html-keyboard-response","398","1426009","0.0-11.0-9.0-0.0-0.0","1577","<div><div style=""""><a style=""white-space:pre-wrap;""> for i in [1, 2]:
   a -= 1
   a *= 5</a><a style=""""></a></div></div>","1","1","1","106","for i in [1, 2]:
   a -= 1
   a *= 5","1","0"
"","html-keyboard-response","399","1427185","0.0-11.0-9.0-1.0-0.0","668","<div><div style=""""><a style=""white-space:pre-wrap;""> for i in [1, 2]:
   a -= 1
   a *= 5</a><a style=""""></a></div></div>","5","5","1","106","for i in [1, 2]:
   a -= 1
   a *= 5","5","1"
"","html-keyboard-response","400","1428457","0.0-11.0-9.0-2.0-0.0","761","<div><div style=""""><a style=""white-space:pre-wrap;""> for i in [1, 2]:
   a -= 1
   a *= 5</a><a style=""""></a></div></div>","4","4","1","106","for i in [1, 2]:
   a -= 1
   a *= 5","4","2"
"","html-keyboard-response","401","1429320","0.0-11.0-9.0-3.0-0.0","361","<div><div style=""""><a style=""white-space:pre-wrap;""> for i in [1, 2]:
   a -= 1
   a *= 5</a><a style=""""></a></div></div>","8","20","0","106","for i in [1, 2]:
   a -= 1
   a *= 5","20","3"
"","html-keyboard-response","403","1433385","0.0-11.0-9.0-4.0-0.0","48","<div><div style=""""><a style=""white-space:pre-wrap;""> for i in [1, 2]:
   a -= 1
   a *= 5</a><a style=""""></a></div></div>","backspace","","1","","","backspace",""
"","html-keyboard-response","404","1437265","0.0-11.0-10.0-0.0-0.0","3367","<div><div style=""""><a style=""white-space:pre-wrap;""> for i in [1, 2, 3]:
   a -= 3</a><a style=""""></a></div></div>","17","17","1","107","for i in [1, 2, 3]:
   a -= 3","17","0"
"","html-keyboard-response","405","1438089","0.0-11.0-10.0-1.0-0.0","312","<div><div style=""""><a style=""white-space:pre-wrap;""> for i in [1, 2, 3]:
   a -= 3</a><a style=""""></a></div></div>","14","14","1","107","for i in [1, 2, 3]:
   a -= 3","14","1"
"","html-keyboard-response","406","1438881","0.0-11.0-10.0-2.0-0.0","283","<div><div style=""""><a style=""white-space:pre-wrap;""> for i in [1, 2, 3]:
   a -= 3</a><a style=""""></a></div></div>","11","11","1","107","for i in [1, 2, 3]:
   a -= 3","11","2"
"","html-keyboard-response","407","1439873","0.0-11.0-10.0-3.0-0.0","481","<div><div style=""""><a style=""white-space:pre-wrap;""> for i in [1, 2, 3]:
   a -= 3</a><a style=""""></a></div></div>","backspace","","1","","","backspace",""
"","html-keyboard-response","408","1442561","0.0-11.0-11.0-0.0-0.0","2173","<div><div style=""""><a style=""white-space:pre-wrap;""> while a >= 5:
   a -= 5</a><a style=""""></a></div></div>","6","6","1","108","while a >= 5:
   a -= 5","6","0"
"","html-keyboard-response","409","1444432","0.0-11.0-11.0-1.0-0.0","1366","<div><div style=""""><a style=""white-space:pre-wrap;""> while a >= 5:
   a -= 5</a><a style=""""></a></div></div>","1","1","1","108","while a >= 5:
   a -= 5","1","1"
"","html-keyboard-response","410","1446249","0.0-11.0-11.0-2.0-0.0","1301","<div><div style=""""><a style=""white-space:pre-wrap;""> while a >= 5:
   a -= 5</a><a style=""""></a></div></div>","backspace","","1","","","backspace",""
"","html-keyboard-response","411","1448801","0.0-12.0-1.0","2045","<p style=""font-size: 25px;"">Please press space to start the next program<br>>>>>>></p>"," ","","","","","",""
