"success","trial_type","trial_index","time_elapsed","internal_node_id","rt","stimulus","response","expected_response","correct","uid","text1","correct_response","loop_step"
"true","fullscreen","0","12931","0.0-0.0","","","","","","","","",""
"","html-keyboard-response","1","14887","0.0-1.0","1952","Please make sure that your keyboard is in English mode. Press 'A' to continue","a","","","","","",""
"","html-keyboard-response","2","17847","0.0-2.0-1.0","2958","<p style=""font-size: 25px;"">Please press space to start the next program<br>>>>>>></p>"," ","","","","","",""
"","html-keyboard-response","3","20721","0.0-2.0-2.0","2871","<div><div style="" font-size:25px; color:green;""><a style=""white-space:pre-wrap;""> a = 7</a><a style=""""></a></div></div>","","null","","10","a = 7","",""
"","html-keyboard-response","4","24237","0.0-2.0-4.0-0.0-0.0","3013","<div><div style=""""><a style=""white-space:pre-wrap;""> while a <= 14:
   a *= 2
   a -= 4</a><a style=""""></a></div></div>","14","","1","","","14","0"
"","html-keyboard-response","5","26174","0.0-2.0-4.0-1.0-0.0","1425","<div><div style=""""><a style=""white-space:pre-wrap;""> while a <= 14:
   a *= 2
   a -= 4</a><a style=""""></a></div></div>","10","","1","","","10","1"
"","html-keyboard-response","6","30209","0.0-2.0-4.0-2.0-0.0","3520","<div><div style=""""><a style=""white-space:pre-wrap;""> while a <= 14:
   a *= 2
   a -= 4</a><a style=""""></a></div></div>","20","","1","","","20","2"
"","html-keyboard-response","7","31291","0.0-2.0-4.0-3.0-0.0","574","<div><div style=""""><a style=""white-space:pre-wrap;""> while a <= 14:
   a *= 2
   a -= 4</a><a style=""""></a></div></div>","16","","1","","","16","3"
"","html-keyboard-response","8","32392","0.0-2.0-4.0-4.0-0.0","585","<div><div style=""""><a style=""white-space:pre-wrap;""> while a <= 14:
   a *= 2
   a -= 4</a><a style=""""></a></div></div>","backspace","","1","","","backspace",""
"","html-keyboard-response","9","36447","0.0-2.0-5.0-0.0-0.0","3547","<div><div style=""""><a style=""white-space:pre-wrap;""> for i in [1, 2, 3]:
   a /= 4
   a *= 2</a><a style=""""></a></div></div>","4","","1","","","4","0"
"","html-keyboard-response","10","37530","0.0-2.0-5.0-1.0-0.0","571","<div><div style=""""><a style=""white-space:pre-wrap;""> for i in [1, 2, 3]:
   a /= 4
   a *= 2</a><a style=""""></a></div></div>","8","","1","","","8","1"
"","html-keyboard-response","11","40733","0.0-2.0-5.0-2.0-0.0","2691","<div><div style=""""><a style=""white-space:pre-wrap;""> for i in [1, 2, 3]:
   a /= 4
   a *= 2</a><a style=""""></a></div></div>","2","","1","","","2","2"
"","html-keyboard-response","12","42456","0.0-2.0-5.0-3.0-0.0","1208","<div><div style=""""><a style=""white-space:pre-wrap;""> for i in [1, 2, 3]:
   a /= 4
   a *= 2</a><a style=""""></a></div></div>","4","","1","","","4","3"
"","html-keyboard-response","13","43876","0.0-2.0-5.0-4.0-0.0","906","<div><div style=""""><a style=""white-space:pre-wrap;""> for i in [1, 2, 3]:
   a /= 4
   a *= 2</a><a style=""""></a></div></div>","1","","1","","","1","4"
"","html-keyboard-response","14","44833","0.0-2.0-5.0-5.0-0.0","447","<div><div style=""""><a style=""white-space:pre-wrap;""> for i in [1, 2, 3]:
   a /= 4
   a *= 2</a><a style=""""></a></div></div>","2","","1","","","2","5"
"","html-keyboard-response","15","46106","0.0-2.0-5.0-6.0-0.0","771","<div><div style=""""><a style=""white-space:pre-wrap;""> for i in [1, 2, 3]:
   a /= 4
   a *= 2</a><a style=""""></a></div></div>","backspace","","1","","","backspace",""
"","html-keyboard-response","16","51114","0.0-2.0-6.0-0.0-0.0","4496","<div><div style=""""><a style=""white-space:pre-wrap;""> for i in [1, 2]:
   a = round_up(a*2.5)</a><a style=""""></a></div></div>","5","","1","","","5","0"
"","html-keyboard-response","17","55002","0.0-2.0-6.0-1.0-0.0","3386","<div><div style=""""><a style=""white-space:pre-wrap;""> for i in [1, 2]:
   a = round_up(a*2.5)</a><a style=""""></a></div></div>","13","","1","","","13","1"
"","html-keyboard-response","18","56344","0.0-2.0-6.0-2.0-0.0","838","<div><div style=""""><a style=""white-space:pre-wrap;""> for i in [1, 2]:
   a = round_up(a*2.5)</a><a style=""""></a></div></div>","backspace","","1","","","backspace",""
"","html-keyboard-response","19","60877","0.0-2.0-7.0-0.0-0.0","4030","<div><div style=""""><a style=""white-space:pre-wrap;""> for i in [1, 2, 3]:
   a = average(a,5)</a><a style=""""></a></div></div>","9","","1","","","9","0"
"","html-keyboard-response","20","62506","0.0-2.0-7.0-1.0-0.0","1119","<div><div style=""""><a style=""white-space:pre-wrap;""> for i in [1, 2, 3]:
   a = average(a,5)</a><a style=""""></a></div></div>","7","","1","","","7","1"
"","html-keyboard-response","21","64523","0.0-2.0-7.0-2.0-0.0","1502","<div><div style=""""><a style=""white-space:pre-wrap;""> for i in [1, 2, 3]:
   a = average(a,5)</a><a style=""""></a></div></div>","6","","1","","","6","2"
"","html-keyboard-response","22","66545","0.0-2.0-7.0-3.0-0.0","1505","<div><div style=""""><a style=""white-space:pre-wrap;""> for i in [1, 2, 3]:
   a = average(a,5)</a><a style=""""></a></div></div>","backspace","","1","","","backspace",""
"","html-keyboard-response","23","70490","0.0-2.0-8.0-0.0-0.0","3434","<div><div style=""""><a style=""white-space:pre-wrap;""> for i in [1, 2]:
   a += 2
   a /= 2</a><a style=""""></a></div></div>","8","","1","","","8","0"
"","html-keyboard-response","24","72136","0.0-2.0-8.0-1.0-0.0","1134","<div><div style=""""><a style=""white-space:pre-wrap;""> for i in [1, 2]:
   a += 2
   a /= 2</a><a style=""""></a></div></div>","4","","1","","","4","1"
"","html-keyboard-response","25","75631","0.0-2.0-8.0-2.0-0.0","2984","<div><div style=""""><a style=""white-space:pre-wrap;""> for i in [1, 2]:
   a += 2
   a /= 2</a><a style=""""></a></div></div>","10","","0","","","6","2"
"","html-keyboard-response","27","84208","0.0-2.0-8.0-3.0-0.0","4562","<div><div style=""""><a style=""white-space:pre-wrap;""> for i in [1, 2]:
   a += 2
   a /= 2</a><a style=""""></a></div></div>","3","","1","","","3","3"
"","html-keyboard-response","28","86182","0.0-2.0-8.0-4.0-0.0","1469","<div><div style=""""><a style=""white-space:pre-wrap;""> for i in [1, 2]:
   a += 2
   a /= 2</a><a style=""""></a></div></div>","backspace","","1","","","backspace",""
"","html-keyboard-response","29","90211","0.0-2.0-9.0-0.0-0.0","3517","<div><div style=""""><a style=""white-space:pre-wrap;""> while a <= 9:
   a *= 2</a><a style=""""></a></div></div>","12","","0","","","6","0"
"","html-keyboard-response","31","102103","0.0-2.0-9.0-1.0-0.0","7880","<div><div style=""""><a style=""white-space:pre-wrap;""> while a <= 9:
   a *= 2</a><a style=""""></a></div></div>","12","","1","","","12","1"
"","html-keyboard-response","32","103819","0.0-2.0-9.0-2.0-0.0","1205","<div><div style=""""><a style=""white-space:pre-wrap;""> while a <= 9:
   a *= 2</a><a style=""""></a></div></div>","backspace","","1","","","backspace",""
"","html-keyboard-response","33","108793","0.0-2.0-10.0-0.0-0.0","4457","<div><div style=""""><a style=""white-space:pre-wrap;""> while a <= 14:
   a += 6
   a -= 4</a><a style=""""></a></div></div>","18","","1","","","18","0"
"","html-keyboard-response","34","111850","0.0-2.0-10.0-1.0-0.0","2555","<div><div style=""""><a style=""white-space:pre-wrap;""> while a <= 14:
   a += 6
   a -= 4</a><a style=""""></a></div></div>","14","","1","","","14","1"
"","html-keyboard-response","35","116183","0.0-2.0-10.0-2.0-0.0","3828","<div><div style=""""><a style=""white-space:pre-wrap;""> while a <= 14:
   a += 6
   a -= 4</a><a style=""""></a></div></div>","20","","1","","","20","2"
"","html-keyboard-response","36","117227","0.0-2.0-10.0-3.0-0.0","535","<div><div style=""""><a style=""white-space:pre-wrap;""> while a <= 14:
   a += 6
   a -= 4</a><a style=""""></a></div></div>","16","","1","","","16","3"
"","html-keyboard-response","37","118674","0.0-2.0-10.0-4.0-0.0","943","<div><div style=""""><a style=""white-space:pre-wrap;""> while a <= 14:
   a += 6
   a -= 4</a><a style=""""></a></div></div>","backspace","","1","","","backspace",""
"","html-keyboard-response","38","125756","0.0-2.0-11.0-0.0-0.0","6576","<div><div style=""""><a style=""white-space:pre-wrap;""> for i in [1, 2, 3, 4]:
   a -= 3</a><a style=""""></a></div></div>","11","","0","","","13","0"
"","html-keyboard-response","40","133759","0.0-2.0-11.0-1.0-0.0","3984","<div><div style=""""><a style=""white-space:pre-wrap;""> for i in [1, 2, 3, 4]:
   a -= 3</a><a style=""""></a></div></div>","10","","1","","","10","1"
"","html-keyboard-response","41","137202","0.0-2.0-11.0-2.0-0.0","2936","<div><div style=""""><a style=""white-space:pre-wrap;""> for i in [1, 2, 3, 4]:
   a -= 3</a><a style=""""></a></div></div>","7","","1","","","7","2"
"","html-keyboard-response","42","138826","0.0-2.0-11.0-3.0-0.0","1108","<div><div style=""""><a style=""white-space:pre-wrap;""> for i in [1, 2, 3, 4]:
   a -= 3</a><a style=""""></a></div></div>","4","","1","","","4","3"
"","html-keyboard-response","43","140103","0.0-2.0-11.0-4.0-0.0","765","<div><div style=""""><a style=""white-space:pre-wrap;""> for i in [1, 2, 3, 4]:
   a -= 3</a><a style=""""></a></div></div>","backspace","","1","","","backspace",""
"","html-keyboard-response","44","143847","0.0-3.0-1.0","3234","<p style=""font-size: 25px;"">Please press space to start the next program<br>>>>>>></p>"," ","","","","","",""
"","html-keyboard-response","45","145915","0.0-3.0-2.0","2066","<div><div style="" font-size:25px; color:green;""><a style=""white-space:pre-wrap;""> a = 18</a><a style=""""></a></div></div>","","null","","19","a = 18","",""
"","html-keyboard-response","46","150001","0.0-3.0-4.0-0.0-0.0","3572","<div><div style=""""><a style=""white-space:pre-wrap;""> while a >= 10:
   a /= 3
   a *= 2</a><a style=""""></a></div></div>","6","","1","","","6","0"
"","html-keyboard-response","47","151377","0.0-3.0-4.0-1.0-0.0","872","<div><div style=""""><a style=""white-space:pre-wrap;""> while a >= 10:
   a /= 3
   a *= 2</a><a style=""""></a></div></div>","12","","1","","","12","1"
"","html-keyboard-response","48","155435","0.0-3.0-4.0-2.0-0.0","3546","<div><div style=""""><a style=""white-space:pre-wrap;""> while a >= 10:
   a /= 3
   a *= 2</a><a style=""""></a></div></div>","4","","1","","","4","2"
"","html-keyboard-response","49","156960","0.0-3.0-4.0-3.0-0.0","1012","<div><div style=""""><a style=""white-space:pre-wrap;""> while a >= 10:
   a /= 3
   a *= 2</a><a style=""""></a></div></div>","8","","1","","","8","3"
"","html-keyboard-response","50","158346","0.0-3.0-4.0-4.0-0.0","874","<div><div style=""""><a style=""white-space:pre-wrap;""> while a >= 10:
   a /= 3
   a *= 2</a><a style=""""></a></div></div>","backspace","","1","","","backspace",""
"","html-keyboard-response","51","167227","0.0-3.0-5.0-0.0-0.0","8363","<div><div style=""""><a style=""white-space:pre-wrap;""> while a >= 2:
   a /= 2</a><a style=""""></a></div></div>","2","","0","","","4","0"
"","html-keyboard-response","53","173851","0.0-3.0-5.0-1.0-0.0","2619","<div><div style=""""><a style=""white-space:pre-wrap;""> while a >= 2:
   a /= 2</a><a style=""""></a></div></div>","2","","1","","","2","1"
"","html-keyboard-response","54","175840","0.0-3.0-5.0-2.0-0.0","1487","<div><div style=""""><a style=""white-space:pre-wrap;""> while a >= 2:
   a /= 2</a><a style=""""></a></div></div>","1","","1","","","1","2"
"","html-keyboard-response","55","177637","0.0-3.0-5.0-3.0-0.0","1282","<div><div style=""""><a style=""white-space:pre-wrap;""> while a >= 2:
   a /= 2</a><a style=""""></a></div></div>","backspace","","1","","","backspace",""
"","html-keyboard-response","56","181960","0.0-3.0-6.0-0.0-0.0","3807","<div><div style=""""><a style=""white-space:pre-wrap;""> for i in [1, 2, 3, 4]:
   a += 2</a><a style=""""></a></div></div>","3","","1","","","3","0"
"","html-keyboard-response","57","183509","0.0-3.0-6.0-1.0-0.0","1036","<div><div style=""""><a style=""white-space:pre-wrap;""> for i in [1, 2, 3, 4]:
   a += 2</a><a style=""""></a></div></div>","5","","1","","","5","1"
"","html-keyboard-response","58","185677","0.0-3.0-6.0-2.0-0.0","1662","<div><div style=""""><a style=""white-space:pre-wrap;""> for i in [1, 2, 3, 4]:
   a += 2</a><a style=""""></a></div></div>","8","","0","","","7","2"
"","html-keyboard-response","60","189752","0.0-3.0-6.0-3.0-0.0","69","<div><div style=""""><a style=""white-space:pre-wrap;""> for i in [1, 2, 3, 4]:
   a += 2</a><a style=""""></a></div></div>","9","","1","","","9","3"
"","html-keyboard-response","61","191880","0.0-3.0-6.0-4.0-0.0","1615","<div><div style=""""><a style=""white-space:pre-wrap;""> for i in [1, 2, 3, 4]:
   a += 2</a><a style=""""></a></div></div>","backspace","","1","","","backspace",""
"","html-keyboard-response","62","195270","0.0-3.0-7.0-0.0-0.0","2883","<div><div style=""""><a style=""white-space:pre-wrap;""> while a >= 6:
   a += 9
   a /= 3</a><a style=""""></a></div></div>","18","","1","","","18","0"
"","html-keyboard-response","63","198296","0.0-3.0-7.0-1.0-0.0","2514","<div><div style=""""><a style=""white-space:pre-wrap;""> while a >= 6:
   a += 9
   a /= 3</a><a style=""""></a></div></div>","6","","1","","","6","1"
"","html-keyboard-response","64","204024","0.0-3.0-7.0-2.0-0.0","5218","<div><div style=""""><a style=""white-space:pre-wrap;""> while a >= 6:
   a += 9
   a /= 3</a><a style=""""></a></div></div>","15","","1","","","15","2"
"","html-keyboard-response","65","207066","0.0-3.0-7.0-3.0-0.0","2538","<div><div style=""""><a style=""white-space:pre-wrap;""> while a >= 6:
   a += 9
   a /= 3</a><a style=""""></a></div></div>","5","","1","","","5","3"
"","html-keyboard-response","66","209847","0.0-3.0-7.0-4.0-0.0","2266","<div><div style=""""><a style=""white-space:pre-wrap;""> while a >= 6:
   a += 9
   a /= 3</a><a style=""""></a></div></div>","backspace","","1","","","backspace",""
"","html-keyboard-response","67","217176","0.0-3.0-8.0-0.0-0.0","6818","<div><div style=""""><a style=""white-space:pre-wrap;""> for i in [1, 2, 3]:
   a = round_down(a*1.5)</a><a style=""""></a></div></div>","7","","1","","","7","0"
"","html-keyboard-response","68","224025","0.0-3.0-8.0-1.0-0.0","6346","<div><div style=""""><a style=""white-space:pre-wrap;""> for i in [1, 2, 3]:
   a = round_down(a*1.5)</a><a style=""""></a></div></div>","10","","1","","","10","1"
"","html-keyboard-response","69","226894","0.0-3.0-8.0-2.0-0.0","2364","<div><div style=""""><a style=""white-space:pre-wrap;""> for i in [1, 2, 3]:
   a = round_down(a*1.5)</a><a style=""""></a></div></div>","15","","1","","","15","2"
"","html-keyboard-response","70","228110","0.0-3.0-8.0-3.0-0.0","714","<div><div style=""""><a style=""white-space:pre-wrap;""> for i in [1, 2, 3]:
   a = round_down(a*1.5)</a><a style=""""></a></div></div>","backspace","","1","","","backspace",""
"","html-keyboard-response","71","235085","0.0-3.0-9.0-0.0-0.0","6465","<div><div style=""""><a style=""white-space:pre-wrap;""> for i in [1, 2]:
   a = average(a,3)</a><a style=""""></a></div></div>","9","","1","","","9","0"
"","html-keyboard-response","72","240072","0.0-3.0-9.0-1.0-0.0","4477","<div><div style=""""><a style=""white-space:pre-wrap;""> for i in [1, 2]:
   a = average(a,3)</a><a style=""""></a></div></div>","6","","1","","","6","1"
"","html-keyboard-response","73","241020","0.0-3.0-9.0-2.0-0.0","440","<div><div style=""""><a style=""white-space:pre-wrap;""> for i in [1, 2]:
   a = average(a,3)</a><a style=""""></a></div></div>","backspace","","1","","","backspace",""
"","html-keyboard-response","74","246261","0.0-3.0-10.0-0.0-0.0","4724","<div><div style=""""><a style=""white-space:pre-wrap;""> while a <= 11:
   a *= 2
   a -= 5</a><a style=""""></a></div></div>","12","","1","","","12","0"
"","html-keyboard-response","75","248186","0.0-3.0-10.0-1.0-0.0","1414","<div><div style=""""><a style=""white-space:pre-wrap;""> while a <= 11:
   a *= 2
   a -= 5</a><a style=""""></a></div></div>","7","","1","","","7","1"
"","html-keyboard-response","76","251535","0.0-3.0-10.0-2.0-0.0","2841","<div><div style=""""><a style=""white-space:pre-wrap;""> while a <= 11:
   a *= 2
   a -= 5</a><a style=""""></a></div></div>","14","","1","","","14","2"
"","html-keyboard-response","77","253308","0.0-3.0-10.0-3.0-0.0","1268","<div><div style=""""><a style=""white-space:pre-wrap;""> while a <= 11:
   a *= 2
   a -= 5</a><a style=""""></a></div></div>","9","","1","","","9","3"
"","html-keyboard-response","78","255866","0.0-3.0-10.0-4.0-0.0","2045","<div><div style=""""><a style=""white-space:pre-wrap;""> while a <= 11:
   a *= 2
   a -= 5</a><a style=""""></a></div></div>","18","","1","","","18","4"
"","html-keyboard-response","79","258521","0.0-3.0-10.0-5.0-0.0","2143","<div><div style=""""><a style=""white-space:pre-wrap;""> while a <= 11:
   a *= 2
   a -= 5</a><a style=""""></a></div></div>","13","","1","","","13","5"
"","html-keyboard-response","80","260279","0.0-3.0-10.0-6.0-0.0","1243","<div><div style=""""><a style=""white-space:pre-wrap;""> while a <= 11:
   a *= 2
   a -= 5</a><a style=""""></a></div></div>","backspace","","1","","","backspace",""
"","html-keyboard-response","81","264528","0.0-3.0-11.0-0.0-0.0","3738","<div><div style=""""><a style=""white-space:pre-wrap;""> while a >= 6:
   a += 4
   a -= 7</a><a style=""""></a></div></div>","17","","1","","","17","0"
"","html-keyboard-response","82","266932","0.0-3.0-11.0-1.0-0.0","1900","<div><div style=""""><a style=""white-space:pre-wrap;""> while a >= 6:
   a += 4
   a -= 7</a><a style=""""></a></div></div>","10","","1","","","10","1"
"","html-keyboard-response","83","271809","0.0-3.0-11.0-2.0-0.0","4364","<div><div style=""""><a style=""white-space:pre-wrap;""> while a >= 6:
   a += 4
   a -= 7</a><a style=""""></a></div></div>","14","","1","","","14","2"
"","html-keyboard-response","84","275378","0.0-3.0-11.0-3.0-0.0","3058","<div><div style=""""><a style=""white-space:pre-wrap;""> while a >= 6:
   a += 4
   a -= 7</a><a style=""""></a></div></div>","7","","1","","","7","3"
"","html-keyboard-response","85","278050","0.0-3.0-11.0-4.0-0.0","2168","<div><div style=""""><a style=""white-space:pre-wrap;""> while a >= 6:
   a += 4
   a -= 7</a><a style=""""></a></div></div>","11","","1","","","11","4"
"","html-keyboard-response","86","281754","0.0-3.0-11.0-5.0-0.0","3196","<div><div style=""""><a style=""white-space:pre-wrap;""> while a >= 6:
   a += 4
   a -= 7</a><a style=""""></a></div></div>","4","","1","","","4","5"
"","html-keyboard-response","87","282599","0.0-3.0-11.0-6.0-0.0","338","<div><div style=""""><a style=""white-space:pre-wrap;""> while a >= 6:
   a += 4
   a -= 7</a><a style=""""></a></div></div>","backspace","","1","","","backspace",""
"","html-keyboard-response","88","285140","0.0-4.0-1.0","2031","<p style=""font-size: 25px;"">Please press space to start the next program<br>>>>>>></p>"," ","","","","","",""
"","html-keyboard-response","89","287058","0.0-4.0-2.0","1916","<div><div style="" font-size:25px; color:green;""><a style=""white-space:pre-wrap;""> a = 8</a><a style=""""></a></div></div>","","null","","37","a = 8","",""
"","html-keyboard-response","90","290237","0.0-4.0-4.0-0.0-0.0","2670","<div><div style=""""><a style=""white-space:pre-wrap;""> for i in [1, 2, 3]:
   a -= 2
   a += 6</a><a style=""""></a></div></div>","6","","1","","","6","0"
"","html-keyboard-response","91","291764","0.0-4.0-4.0-1.0-0.0","1024","<div><div style=""""><a style=""white-space:pre-wrap;""> for i in [1, 2, 3]:
   a -= 2
   a += 6</a><a style=""""></a></div></div>","12","","1","","","12","1"
"","html-keyboard-response","92","293983","0.0-4.0-4.0-2.0-0.0","1717","<div><div style=""""><a style=""white-space:pre-wrap;""> for i in [1, 2, 3]:
   a -= 2
   a += 6</a><a style=""""></a></div></div>","10","","1","","","10","2"
"","html-keyboard-response","93","295564","0.0-4.0-4.0-3.0-0.0","1064","<div><div style=""""><a style=""white-space:pre-wrap;""> for i in [1, 2, 3]:
   a -= 2
   a += 6</a><a style=""""></a></div></div>","16","","1","","","16","3"
"","html-keyboard-response","94","303353","0.0-4.0-4.0-4.0-0.0","7284","<div><div style=""""><a style=""white-space:pre-wrap;""> for i in [1, 2, 3]:
   a -= 2
   a += 6</a><a style=""""></a></div></div>","14","","1","","","14","4"
"","html-keyboard-response","95","306318","0.0-4.0-4.0-5.0-0.0","2463","<div><div style=""""><a style=""white-space:pre-wrap;""> for i in [1, 2, 3]:
   a -= 2
   a += 6</a><a style=""""></a></div></div>","20","","1","","","20","5"
"","html-keyboard-response","96","312334","0.0-4.0-4.0-6.0-0.0","5505","<div><div style=""""><a style=""white-space:pre-wrap;""> for i in [1, 2, 3]:
   a -= 2
   a += 6</a><a style=""""></a></div></div>","18","","0","","","backspace",""
"","html-keyboard-response","97","316352","0.0-4.0-4.0-6.0-1.0-0.0","null","<div><p style=""font-size:25px; color:green;"">end of loop<br>>>>>>></p>
						<div>Hit the ""end loop"" key to continue</div></div>","null","","","","","",""
"","html-keyboard-response","98","316755","0.0-4.0-4.0-6.1-0.1","401","<div><div style=""""><a style=""white-space:pre-wrap;""> for i in [1, 2, 3]:
   a -= 2
   a += 6</a><a style=""""></a></div></div>","backspace","","1","","","backspace",""
"","html-keyboard-response","99","323611","0.0-4.0-5.0-0.0-0.0","6345","<div><div style=""""><a style=""white-space:pre-wrap;""> while a >= 8:
   a /= 2</a><a style=""""></a></div></div>","10","","1","","","10","0"
"","html-keyboard-response","100","328276","0.0-4.0-5.0-1.0-0.0","4161","<div><div style=""""><a style=""white-space:pre-wrap;""> while a >= 8:
   a /= 2</a><a style=""""></a></div></div>","5","","1","","","5","1"
"","html-keyboard-response","101","329416","0.0-4.0-5.0-2.0-0.0","637","<div><div style=""""><a style=""white-space:pre-wrap;""> while a >= 8:
   a /= 2</a><a style=""""></a></div></div>","backspace","","1","","","backspace",""
"","html-keyboard-response","102","336091","0.0-4.0-6.0-0.0-0.0","6173","<div><div style=""""><a style=""white-space:pre-wrap;""> while a <= 15:
   a = round_up(a*1.5)</a><a style=""""></a></div></div>","8","","1","","","8","0"
"","html-keyboard-response","103","339518","0.0-4.0-6.0-1.0-0.0","2925","<div><div style=""""><a style=""white-space:pre-wrap;""> while a <= 15:
   a = round_up(a*1.5)</a><a style=""""></a></div></div>","12","","1","","","12","1"
"","html-keyboard-response","104","343041","0.0-4.0-6.0-2.0-0.0","3015","<div><div style=""""><a style=""white-space:pre-wrap;""> while a <= 15:
   a = round_up(a*1.5)</a><a style=""""></a></div></div>","18","","1","","","18","2"
"","html-keyboard-response","105","344012","0.0-4.0-6.0-3.0-0.0","463","<div><div style=""""><a style=""white-space:pre-wrap;""> while a <= 15:
   a = round_up(a*1.5)</a><a style=""""></a></div></div>","backspace","","1","","","backspace",""
"","html-keyboard-response","106","349294","0.0-4.0-7.0-0.0-0.0","4765","<div><div style=""""><a style=""white-space:pre-wrap;""> while a >= 4:
   a = average(a,2)</a><a style=""""></a></div></div>","10","","1","","","10","0"
"","html-keyboard-response","107","353999","0.0-4.0-7.0-1.0-0.0","4200","<div><div style=""""><a style=""white-space:pre-wrap;""> while a >= 4:
   a = average(a,2)</a><a style=""""></a></div></div>","6","","1","","","6","1"
"","html-keyboard-response","108","356461","0.0-4.0-7.0-2.0-0.0","1953","<div><div style=""""><a style=""white-space:pre-wrap;""> while a >= 4:
   a = average(a,2)</a><a style=""""></a></div></div>","4","","1","","","4","2"
"","html-keyboard-response","109","361295","0.0-4.0-7.0-3.0-0.0","4324","<div><div style=""""><a style=""white-space:pre-wrap;""> while a >= 4:
   a = average(a,2)</a><a style=""""></a></div></div>","3","","1","","","3","3"
"","html-keyboard-response","110","363639","0.0-4.0-7.0-4.0-0.0","1829","<div><div style=""""><a style=""white-space:pre-wrap;""> while a >= 4:
   a = average(a,2)</a><a style=""""></a></div></div>","backspace","","1","","","backspace",""
"","html-keyboard-response","111","368379","0.0-4.0-8.0-0.0-0.0","4232","<div><div style=""""><a style=""white-space:pre-wrap;""> for i in [1, 2]:
   a += 7
   a /= 2</a><a style=""""></a></div></div>","10","","1","","","10","0"
"","html-keyboard-response","112","370324","0.0-4.0-8.0-1.0-0.0","1430","<div><div style=""""><a style=""white-space:pre-wrap;""> for i in [1, 2]:
   a += 7
   a /= 2</a><a style=""""></a></div></div>","5","","1","","","5","1"
"","html-keyboard-response","113","372114","0.0-4.0-8.0-2.0-0.0","1281","<div><div style=""""><a style=""white-space:pre-wrap;""> for i in [1, 2]:
   a += 7
   a /= 2</a><a style=""""></a></div></div>","17","","0","","","12","2"
"","html-keyboard-response","115","377894","0.0-4.0-8.0-3.0-0.0","1758","<div><div style=""""><a style=""white-space:pre-wrap;""> for i in [1, 2]:
   a += 7
   a /= 2</a><a style=""""></a></div></div>","6","","1","","","6","3"
"","html-keyboard-response","116","379144","0.0-4.0-8.0-4.0-0.0","735","<div><div style=""""><a style=""white-space:pre-wrap;""> for i in [1, 2]:
   a += 7
   a /= 2</a><a style=""""></a></div></div>","backspace","","1","","","backspace",""
"","html-keyboard-response","117","390541","0.0-4.0-9.0-0.0-0.0","10887","<div><div style=""""><a style=""white-space:pre-wrap;""> for i in [1, 2, 3, 4]:
   a += 3</a><a style=""""></a></div></div>","8","","0","","","9","0"
"","html-keyboard-response","119","394801","0.0-4.0-9.0-1.0-0.0","231","<div><div style=""""><a style=""white-space:pre-wrap;""> for i in [1, 2, 3, 4]:
   a += 3</a><a style=""""></a></div></div>","12","","1","","","12","1"
"","html-keyboard-response","120","396522","0.0-4.0-9.0-2.0-0.0","1213","<div><div style=""""><a style=""white-space:pre-wrap;""> for i in [1, 2, 3, 4]:
   a += 3</a><a style=""""></a></div></div>","15","","1","","","15","2"
"","html-keyboard-response","121","398632","0.0-4.0-9.0-3.0-0.0","1604","<div><div style=""""><a style=""white-space:pre-wrap;""> for i in [1, 2, 3, 4]:
   a += 3</a><a style=""""></a></div></div>","18","","1","","","18","3"
"","html-keyboard-response","122","399563","0.0-4.0-9.0-4.0-0.0","428","<div><div style=""""><a style=""white-space:pre-wrap;""> for i in [1, 2, 3, 4]:
   a += 3</a><a style=""""></a></div></div>","backspace","","1","","","backspace",""
"","html-keyboard-response","123","402843","0.0-4.0-10.0-0.0-0.0","2764","<div><div style=""""><a style=""white-space:pre-wrap;""> for i in [1, 2]:
   a /= 3
   a *= 2</a><a style=""""></a></div></div>","6","","1","","","6","0"
"","html-keyboard-response","124","404434","0.0-4.0-10.0-1.0-0.0","1084","<div><div style=""""><a style=""white-space:pre-wrap;""> for i in [1, 2]:
   a /= 3
   a *= 2</a><a style=""""></a></div></div>","12","","1","","","12","1"
"","html-keyboard-response","125","408990","0.0-4.0-10.0-2.0-0.0","4044","<div><div style=""""><a style=""white-space:pre-wrap;""> for i in [1, 2]:
   a /= 3
   a *= 2</a><a style=""""></a></div></div>","4","","1","","","4","2"
"","html-keyboard-response","126","410577","0.0-4.0-10.0-3.0-0.0","1071","<div><div style=""""><a style=""white-space:pre-wrap;""> for i in [1, 2]:
   a /= 3
   a *= 2</a><a style=""""></a></div></div>","8","","1","","","8","3"
"","html-keyboard-response","127","412005","0.0-4.0-10.0-4.0-0.0","924","<div><div style=""""><a style=""white-space:pre-wrap;""> for i in [1, 2]:
   a /= 3
   a *= 2</a><a style=""""></a></div></div>","backspace","","1","","","backspace",""
"","html-keyboard-response","128","420856","0.0-4.0-11.0-0.0-0.0","8346","<div><div style=""""><a style=""white-space:pre-wrap;""> while a >= 3:
   a *= 2
   a -= 9</a><a style=""""></a></div></div>","16","","1","","","16","0"
"","html-keyboard-response","129","424040","0.0-4.0-11.0-1.0-0.0","2672","<div><div style=""""><a style=""white-space:pre-wrap;""> while a >= 3:
   a *= 2
   a -= 9</a><a style=""""></a></div></div>","7","","1","","","7","1"
"","html-keyboard-response","130","427565","0.0-4.0-11.0-2.0-0.0","3022","<div><div style=""""><a style=""white-space:pre-wrap;""> while a >= 3:
   a *= 2
   a -= 9</a><a style=""""></a></div></div>","14","","1","","","14","2"
"","html-keyboard-response","131","431036","0.0-4.0-11.0-3.0-0.0","2966","<div><div style=""""><a style=""white-space:pre-wrap;""> while a >= 3:
   a *= 2
   a -= 9</a><a style=""""></a></div></div>","5","","1","","","5","3"
"","html-keyboard-response","132","435220","0.0-4.0-11.0-4.0-0.0","3668","<div><div style=""""><a style=""white-space:pre-wrap;""> while a >= 3:
   a *= 2
   a -= 9</a><a style=""""></a></div></div>","10","","1","","","10","4"
"","html-keyboard-response","133","436258","0.0-4.0-11.0-5.0-0.0","533","<div><div style=""""><a style=""white-space:pre-wrap;""> while a >= 3:
   a *= 2
   a -= 9</a><a style=""""></a></div></div>","1","","1","","","1","5"
"","html-keyboard-response","134","437565","0.0-4.0-11.0-6.0-0.0","795","<div><div style=""""><a style=""white-space:pre-wrap;""> while a >= 3:
   a *= 2
   a -= 9</a><a style=""""></a></div></div>","backspace","","1","","","backspace",""
"","html-keyboard-response","135","482435","0.0-5.0-0.0-0.0","44366","<p style=""position:absolute; top:30%; font-size:25px; color:green;"" >Take a short break now</p>"," ","","","","","",""
"","html-keyboard-response","136","484077","0.0-5.0-1.0","1640","<p style=""font-size: 25px;"">Please press space to start the next program<br>>>>>>></p>"," ","","","","","",""
"","html-keyboard-response","137","485590","0.0-5.0-2.0","1512","<div><div style="" font-size:25px; color:green;""><a style=""white-space:pre-wrap;""> a = 11</a><a style=""""></a></div></div>","","null","","55","a = 11","",""
"","html-keyboard-response","138","490625","0.0-5.0-4.0-0.0-0.0","4529","<div><div style=""""><a style=""white-space:pre-wrap;""> while a >= 5:
   a += 4
   a /= 3</a><a style=""""></a></div></div>","15","","1","","","15","0"
"","html-keyboard-response","139","492158","0.0-5.0-4.0-1.0-0.0","1030","<div><div style=""""><a style=""white-space:pre-wrap;""> while a >= 5:
   a += 4
   a /= 3</a><a style=""""></a></div></div>","5","","1","","","5","1"
"","html-keyboard-response","140","495164","0.0-5.0-4.0-2.0-0.0","2497","<div><div style=""""><a style=""white-space:pre-wrap;""> while a >= 5:
   a += 4
   a /= 3</a><a style=""""></a></div></div>","9","","1","","","9","2"
"","html-keyboard-response","141","498898","0.0-5.0-4.0-3.0-0.0","3226","<div><div style=""""><a style=""white-space:pre-wrap;""> while a >= 5:
   a += 4
   a /= 3</a><a style=""""></a></div></div>","3","","1","","","3","3"
"","html-keyboard-response","142","501892","0.0-5.0-4.0-4.0-0.0","2492","<div><div style=""""><a style=""white-space:pre-wrap;""> while a >= 5:
   a += 4
   a /= 3</a><a style=""""></a></div></div>","backspace","","1","","","backspace",""
"","html-keyboard-response","143","511844","0.0-5.0-5.0-0.0-0.0","9443","<div><div style=""""><a style=""white-space:pre-wrap;""> for i in [1, 2]:
   a = round_down(a*2.5)</a><a style=""""></a></div></div>","6","","0","","","7","0"
"","html-keyboard-response","145","521414","0.0-5.0-5.0-1.0-0.0","5550","<div><div style=""""><a style=""white-space:pre-wrap;""> for i in [1, 2]:
   a = round_down(a*2.5)</a><a style=""""></a></div></div>","17","","1","","","17","1"
"","html-keyboard-response","146","523708","0.0-5.0-5.0-2.0-0.0","1779","<div><div style=""""><a style=""white-space:pre-wrap;""> for i in [1, 2]:
   a = round_down(a*2.5)</a><a style=""""></a></div></div>","backspace","","1","","","backspace",""
"","html-keyboard-response","147","529629","0.0-5.0-6.0-0.0-0.0","5406","<div><div style=""""><a style=""white-space:pre-wrap;""> for i in [1, 2, 3, 4]:
   a = average(a,1)</a><a style=""""></a></div></div>","9","","1","","","9","0"
"","html-keyboard-response","148","531536","0.0-5.0-6.0-1.0-0.0","1403","<div><div style=""""><a style=""white-space:pre-wrap;""> for i in [1, 2, 3, 4]:
   a = average(a,1)</a><a style=""""></a></div></div>","5","","1","","","5","1"
"","html-keyboard-response","149","535298","0.0-5.0-6.0-2.0-0.0","3253","<div><div style=""""><a style=""white-space:pre-wrap;""> for i in [1, 2, 3, 4]:
   a = average(a,1)</a><a style=""""></a></div></div>","3","","1","","","3","2"
"","html-keyboard-response","150","541863","0.0-5.0-6.0-3.0-0.0","6048","<div><div style=""""><a style=""white-space:pre-wrap;""> for i in [1, 2, 3, 4]:
   a = average(a,1)</a><a style=""""></a></div></div>","2","","1","","","2","3"
"","html-keyboard-response","151","542839","0.0-5.0-6.0-4.0-0.0","465","<div><div style=""""><a style=""white-space:pre-wrap;""> for i in [1, 2, 3, 4]:
   a = average(a,1)</a><a style=""""></a></div></div>","backspace","","1","","","backspace",""
"","html-keyboard-response","152","548029","0.0-5.0-7.0-0.0-0.0","4688","<div><div style=""""><a style=""white-space:pre-wrap;""> for i in [1, 2]:
   a *= 3
   a -= 1</a><a style=""""></a></div></div>","6","","1","","","6","0"
"","html-keyboard-response","153","549121","0.0-5.0-7.0-1.0-0.0","576","<div><div style=""""><a style=""white-space:pre-wrap;""> for i in [1, 2]:
   a *= 3
   a -= 1</a><a style=""""></a></div></div>","5","","1","","","5","1"
"","html-keyboard-response","154","551425","0.0-5.0-7.0-2.0-0.0","1794","<div><div style=""""><a style=""white-space:pre-wrap;""> for i in [1, 2]:
   a *= 3
   a -= 1</a><a style=""""></a></div></div>","15","","1","","","15","2"
"","html-keyboard-response","155","552763","0.0-5.0-7.0-3.0-0.0","821","<div><div style=""""><a style=""white-space:pre-wrap;""> for i in [1, 2]:
   a *= 3
   a -= 1</a><a style=""""></a></div></div>","14","","1","","","14","3"
"","html-keyboard-response","156","554134","0.0-5.0-7.0-4.0-0.0","859","<div><div style=""""><a style=""white-space:pre-wrap;""> for i in [1, 2]:
   a *= 3
   a -= 1</a><a style=""""></a></div></div>","backspace","","1","","","backspace",""
"","html-keyboard-response","157","558635","0.0-5.0-8.0-0.0-0.0","3992","<div><div style=""""><a style=""white-space:pre-wrap;""> while a >= 4:
   a -= 5
   a += 1</a><a style=""""></a></div></div>","9","","1","","","9","0"
"","html-keyboard-response","158","561290","0.0-5.0-8.0-1.0-0.0","2151","<div><div style=""""><a style=""white-space:pre-wrap;""> while a >= 4:
   a -= 5
   a += 1</a><a style=""""></a></div></div>","10","","1","","","10","1"
"","html-keyboard-response","159","565457","0.0-5.0-8.0-2.0-0.0","3660","<div><div style=""""><a style=""white-space:pre-wrap;""> while a >= 4:
   a -= 5
   a += 1</a><a style=""""></a></div></div>","5","","1","","","5","2"
"","html-keyboard-response","160","566944","0.0-5.0-8.0-3.0-0.0","972","<div><div style=""""><a style=""white-space:pre-wrap;""> while a >= 4:
   a -= 5
   a += 1</a><a style=""""></a></div></div>","6","","1","","","6","3"
"","html-keyboard-response","161","568578","0.0-5.0-8.0-4.0-0.0","1120","<div><div style=""""><a style=""white-space:pre-wrap;""> while a >= 4:
   a -= 5
   a += 1</a><a style=""""></a></div></div>","1","","1","","","1","4"
"","html-keyboard-response","162","569744","0.0-5.0-8.0-5.0-0.0","654","<div><div style=""""><a style=""white-space:pre-wrap;""> while a >= 4:
   a -= 5
   a += 1</a><a style=""""></a></div></div>","2","","1","","","2","5"
"","html-keyboard-response","163","570877","0.0-5.0-8.0-6.0-0.0","620","<div><div style=""""><a style=""white-space:pre-wrap;""> while a >= 4:
   a -= 5
   a += 1</a><a style=""""></a></div></div>","backspace","","1","","","backspace",""
"","html-keyboard-response","164","575887","0.0-5.0-9.0-0.0-0.0","4497","<div><div style=""""><a style=""white-space:pre-wrap;""> while a <= 15:
   a *= 3</a><a style=""""></a></div></div>","6","","1","","","6","0"
"","html-keyboard-response","165","577422","0.0-5.0-9.0-1.0-0.0","1033","<div><div style=""""><a style=""white-space:pre-wrap;""> while a <= 15:
   a *= 3</a><a style=""""></a></div></div>","18","","1","","","18","1"
"","html-keyboard-response","166","578925","0.0-5.0-9.0-2.0-0.0","996","<div><div style=""""><a style=""white-space:pre-wrap;""> while a <= 15:
   a *= 3</a><a style=""""></a></div></div>","backspace","","1","","","backspace",""
"","html-keyboard-response","167","583732","0.0-5.0-10.0-0.0-0.0","4290","<div><div style=""""><a style=""white-space:pre-wrap;""> while a >= 11:
   a /= 3
   a *= 2</a><a style=""""></a></div></div>","6","","1","","","6","0"
"","html-keyboard-response","168","586081","0.0-5.0-10.0-1.0-0.0","1839","<div><div style=""""><a style=""white-space:pre-wrap;""> while a >= 11:
   a /= 3
   a *= 2</a><a style=""""></a></div></div>","12","","1","","","12","1"
"","html-keyboard-response","169","587867","0.0-5.0-10.0-2.0-0.0","1276","<div><div style=""""><a style=""white-space:pre-wrap;""> while a >= 11:
   a /= 3
   a *= 2</a><a style=""""></a></div></div>","4","","1","","","4","2"
"","html-keyboard-response","170","589034","0.0-5.0-10.0-3.0-0.0","650","<div><div style=""""><a style=""white-space:pre-wrap;""> while a >= 11:
   a /= 3
   a *= 2</a><a style=""""></a></div></div>","8","","1","","","8","3"
"","html-keyboard-response","171","590454","0.0-5.0-10.0-4.0-0.0","908","<div><div style=""""><a style=""white-space:pre-wrap;""> while a >= 11:
   a /= 3
   a *= 2</a><a style=""""></a></div></div>","backspace","","1","","","backspace",""
"","html-keyboard-response","172","595478","0.0-5.0-11.0-0.0-0.0","4511","<div><div style=""""><a style=""white-space:pre-wrap;""> for i in [1, 2, 3]:
   a += 4</a><a style=""""></a></div></div>","12","","1","","","12","0"
"","html-keyboard-response","173","596863","0.0-5.0-11.0-1.0-0.0","870","<div><div style=""""><a style=""white-space:pre-wrap;""> for i in [1, 2, 3]:
   a += 4</a><a style=""""></a></div></div>","16","","1","","","16","1"
"","html-keyboard-response","174","598752","0.0-5.0-11.0-2.0-0.0","1384","<div><div style=""""><a style=""white-space:pre-wrap;""> for i in [1, 2, 3]:
   a += 4</a><a style=""""></a></div></div>","20","","1","","","20","2"
"","html-keyboard-response","175","600664","0.0-5.0-11.0-3.0-0.0","1404","<div><div style=""""><a style=""white-space:pre-wrap;""> for i in [1, 2, 3]:
   a += 4</a><a style=""""></a></div></div>","backspace","","1","","","backspace",""
"","html-keyboard-response","176","603849","0.0-6.0-1.0","2672","<p style=""font-size: 25px;"">Please press space to start the next program<br>>>>>>></p>"," ","","","","","",""
"","html-keyboard-response","177","606443","0.0-6.0-2.0","2593","<div><div style="" font-size:25px; color:green;""><a style=""white-space:pre-wrap;""> a = 16</a><a style=""""></a></div></div>","","null","","82","a = 16","",""
"","html-keyboard-response","178","610075","0.0-6.0-4.0-0.0-0.0","3124","<div><div style=""""><a style=""white-space:pre-wrap;""> while a >= 6:
   a /= 2</a><a style=""""></a></div></div>","8","","1","","","8","0"
"","html-keyboard-response","179","612570","0.0-6.0-4.0-1.0-0.0","1983","<div><div style=""""><a style=""white-space:pre-wrap;""> while a >= 6:
   a /= 2</a><a style=""""></a></div></div>","4","","1","","","4","1"
"","html-keyboard-response","180","614750","0.0-6.0-4.0-2.0-0.0","1668","<div><div style=""""><a style=""white-space:pre-wrap;""> while a >= 6:
   a /= 2</a><a style=""""></a></div></div>","backspace","","1","","","backspace",""
"","html-keyboard-response","181","619321","0.0-6.0-5.0-0.0-0.0","4059","<div><div style=""""><a style=""white-space:pre-wrap;""> while a <= 11:
   a = round_up(a*1.5)</a><a style=""""></a></div></div>","6","","1","","","6","0"
"","html-keyboard-response","182","621201","0.0-6.0-5.0-1.0-0.0","1370","<div><div style=""""><a style=""white-space:pre-wrap;""> while a <= 11:
   a = round_up(a*1.5)</a><a style=""""></a></div></div>","9","","1","","","9","1"
"","html-keyboard-response","183","627927","0.0-6.0-5.0-2.0-0.0","6214","<div><div style=""""><a style=""white-space:pre-wrap;""> while a <= 11:
   a = round_up(a*1.5)</a><a style=""""></a></div></div>","13","","0","","","14","2"
"","html-keyboard-response","185","633095","0.0-6.0-5.0-3.0-0.0","1157","<div><div style=""""><a style=""white-space:pre-wrap;""> while a <= 11:
   a = round_up(a*1.5)</a><a style=""""></a></div></div>","backspace","","1","","","backspace",""
"","html-keyboard-response","186","638894","0.0-6.0-6.0-0.0-0.0","5283","<div><div style=""""><a style=""white-space:pre-wrap;""> for i in [1, 2]:
   a += 5
   a -= 6</a><a style=""""></a></div></div>","18","","0","","","19","0"
"","html-keyboard-response","188","645993","0.0-6.0-6.0-1.0-0.0","3083","<div><div style=""""><a style=""white-space:pre-wrap;""> for i in [1, 2]:
   a += 5
   a -= 6</a><a style=""""></a></div></div>","13","","1","","","13","1"
"","html-keyboard-response","189","648900","0.0-6.0-6.0-2.0-0.0","2398","<div><div style=""""><a style=""white-space:pre-wrap;""> for i in [1, 2]:
   a += 5
   a -= 6</a><a style=""""></a></div></div>","18","","1","","","18","2"
"","html-keyboard-response","190","649974","0.0-6.0-6.0-3.0-0.0","569","<div><div style=""""><a style=""white-space:pre-wrap;""> for i in [1, 2]:
   a += 5
   a -= 6</a><a style=""""></a></div></div>","12","","1","","","12","3"
"","html-keyboard-response","191","651008","0.0-6.0-6.0-4.0-0.0","533","<div><div style=""""><a style=""white-space:pre-wrap;""> for i in [1, 2]:
   a += 5
   a -= 6</a><a style=""""></a></div></div>","backspace","","1","","","backspace",""
"","html-keyboard-response","192","656553","0.0-6.0-7.0-0.0-0.0","5033","<div><div style=""""><a style=""white-space:pre-wrap;""> for i in [1, 2, 3]:
   a = average(a,4)</a><a style=""""></a></div></div>","8","","1","","","8","0"
"","html-keyboard-response","193","660849","0.0-6.0-7.0-1.0-0.0","3786","<div><div style=""""><a style=""white-space:pre-wrap;""> for i in [1, 2, 3]:
   a = average(a,4)</a><a style=""""></a></div></div>","6","","1","","","6","1"
"","html-keyboard-response","194","663542","0.0-6.0-7.0-2.0-0.0","2185","<div><div style=""""><a style=""white-space:pre-wrap;""> for i in [1, 2, 3]:
   a = average(a,4)</a><a style=""""></a></div></div>","5","","1","","","5","2"
"","html-keyboard-response","195","664999","0.0-6.0-7.0-3.0-0.0","952","<div><div style=""""><a style=""white-space:pre-wrap;""> for i in [1, 2, 3]:
   a = average(a,4)</a><a style=""""></a></div></div>","backspace","","1","","","backspace",""
"","html-keyboard-response","196","668945","0.0-6.0-8.0-0.0-0.0","3439","<div><div style=""""><a style=""white-space:pre-wrap;""> while a >= 3:
   a *= 3
   a -= 11</a><a style=""""></a></div></div>","15","","1","","","15","0"
"","html-keyboard-response","197","671081","0.0-6.0-8.0-1.0-0.0","1622","<div><div style=""""><a style=""white-space:pre-wrap;""> while a >= 3:
   a *= 3
   a -= 11</a><a style=""""></a></div></div>","4","","1","","","4","1"
"","html-keyboard-response","198","674006","0.0-6.0-8.0-2.0-0.0","2408","<div><div style=""""><a style=""white-space:pre-wrap;""> while a >= 3:
   a *= 3
   a -= 11</a><a style=""""></a></div></div>","12","","1","","","12","2"
"","html-keyboard-response","199","675070","0.0-6.0-8.0-3.0-0.0","552","<div><div style=""""><a style=""white-space:pre-wrap;""> while a >= 3:
   a *= 3
   a -= 11</a><a style=""""></a></div></div>","1","","1","","","1","3"
"","html-keyboard-response","200","676154","0.0-6.0-8.0-4.0-0.0","578","<div><div style=""""><a style=""white-space:pre-wrap;""> while a >= 3:
   a *= 3
   a -= 11</a><a style=""""></a></div></div>","backspace","","1","","","backspace",""
"","html-keyboard-response","201","678838","0.0-6.0-9.0-0.0-0.0","2169","<div><div style=""""><a style=""white-space:pre-wrap;""> for i in [1, 2]:
   a *= 6
   a /= 2</a><a style=""""></a></div></div>","6","","1","","","6","0"
"","html-keyboard-response","202","679791","0.0-6.0-9.0-1.0-0.0","440","<div><div style=""""><a style=""white-space:pre-wrap;""> for i in [1, 2]:
   a *= 6
   a /= 2</a><a style=""""></a></div></div>","3","","1","","","3","1"
"","html-keyboard-response","203","682528","0.0-6.0-9.0-2.0-0.0","2234","<div><div style=""""><a style=""white-space:pre-wrap;""> for i in [1, 2]:
   a *= 6
   a /= 2</a><a style=""""></a></div></div>","18","","1","","","18","2"
"","html-keyboard-response","204","684106","0.0-6.0-9.0-3.0-0.0","1064","<div><div style=""""><a style=""white-space:pre-wrap;""> for i in [1, 2]:
   a *= 6
   a /= 2</a><a style=""""></a></div></div>","9","","1","","","9","3"
"","html-keyboard-response","205","685399","0.0-6.0-9.0-4.0-0.0","779","<div><div style=""""><a style=""white-space:pre-wrap;""> for i in [1, 2]:
   a *= 6
   a /= 2</a><a style=""""></a></div></div>","backspace","","1","","","backspace",""
"","html-keyboard-response","206","689350","0.0-6.0-10.0-0.0-0.0","3443","<div><div style=""""><a style=""white-space:pre-wrap;""> for i in [1, 2]:
   a -= 2</a><a style=""""></a></div></div>","7","","1","","","7","0"
"","html-keyboard-response","207","690462","0.0-6.0-10.0-1.0-0.0","608","<div><div style=""""><a style=""white-space:pre-wrap;""> for i in [1, 2]:
   a -= 2</a><a style=""""></a></div></div>","5","","1","","","5","1"
"","html-keyboard-response","208","691798","0.0-6.0-10.0-2.0-0.0","819","<div><div style=""""><a style=""white-space:pre-wrap;""> for i in [1, 2]:
   a -= 2</a><a style=""""></a></div></div>","backspace","","1","","","backspace",""
"","html-keyboard-response","209","695925","0.0-6.0-11.0-0.0-0.0","3622","<div><div style=""""><a style=""white-space:pre-wrap;""> while a <= 7:
   a += 9
   a /= 2</a><a style=""""></a></div></div>","14","","1","","","14","0"
"","html-keyboard-response","210","697645","0.0-6.0-11.0-1.0-0.0","1212","<div><div style=""""><a style=""white-space:pre-wrap;""> while a <= 7:
   a += 9
   a /= 2</a><a style=""""></a></div></div>","7","","1","","","7","1"
"","html-keyboard-response","211","701084","0.0-6.0-11.0-2.0-0.0","2928","<div><div style=""""><a style=""white-space:pre-wrap;""> while a <= 7:
   a += 9
   a /= 2</a><a style=""""></a></div></div>","16","","1","","","16","2"
"","html-keyboard-response","212","702152","0.0-6.0-11.0-3.0-0.0","551","<div><div style=""""><a style=""white-space:pre-wrap;""> while a <= 7:
   a += 9
   a /= 2</a><a style=""""></a></div></div>","8","","1","","","8","3"
"","html-keyboard-response","213","709767","0.0-6.0-11.0-4.0-0.0","7108","<div><div style=""""><a style=""white-space:pre-wrap;""> while a <= 7:
   a += 9
   a /= 2</a><a style=""""></a></div></div>","backspace","","1","","","backspace",""
"","html-keyboard-response","214","734065","0.0-7.0-0.0-0.0","23781","<p style=""position:absolute; top:30%; font-size:25px; color:green;"" >Take a short break now</p>"," ","","","","","",""
"","html-keyboard-response","215","735642","0.0-7.0-1.0","1576","<p style=""font-size: 25px;"">Please press space to start the next program<br>>>>>>></p>"," ","","","","","",""
"","html-keyboard-response","216","737193","0.0-7.0-2.0","1550","<div><div style="" font-size:25px; color:green;""><a style=""white-space:pre-wrap;""> a = 7</a><a style=""""></a></div></div>","","null","","1","a = 7","",""
"","html-keyboard-response","217","740752","0.0-7.0-4.0-0.0-0.0","3045","<div><div style=""""><a style=""white-space:pre-wrap;""> for i in [1, 2]:
   a *= 2
   a -= 4</a><a style=""""></a></div></div>","14","","1","","","14","0"
"","html-keyboard-response","218","742154","0.0-7.0-4.0-1.0-0.0","891","<div><div style=""""><a style=""white-space:pre-wrap;""> for i in [1, 2]:
   a *= 2
   a -= 4</a><a style=""""></a></div></div>","10","","1","","","10","1"
"","html-keyboard-response","219","744361","0.0-7.0-4.0-2.0-0.0","1691","<div><div style=""""><a style=""white-space:pre-wrap;""> for i in [1, 2]:
   a *= 2
   a -= 4</a><a style=""""></a></div></div>","20","","1","","","20","2"
"","html-keyboard-response","220","746524","0.0-7.0-4.0-3.0-0.0","1654","<div><div style=""""><a style=""white-space:pre-wrap;""> for i in [1, 2]:
   a *= 2
   a -= 4</a><a style=""""></a></div></div>","16","","1","","","16","3"
"","html-keyboard-response","221","748168","0.0-7.0-4.0-4.0-0.0","1142","<div><div style=""""><a style=""white-space:pre-wrap;""> for i in [1, 2]:
   a *= 2
   a -= 4</a><a style=""""></a></div></div>","backspace","","1","","","backspace",""
"","html-keyboard-response","222","753791","0.0-7.0-5.0-0.0-0.0","5117","<div><div style=""""><a style=""white-space:pre-wrap;""> for i in [1, 2, 3]:
   a /= 4
   a *= 2</a><a style=""""></a></div></div>","4","","1","","","4","0"
"","html-keyboard-response","223","755410","0.0-7.0-5.0-1.0-0.0","1103","<div><div style=""""><a style=""white-space:pre-wrap;""> for i in [1, 2, 3]:
   a /= 4
   a *= 2</a><a style=""""></a></div></div>","8","","1","","","8","1"
"","html-keyboard-response","224","758142","0.0-7.0-5.0-2.0-0.0","2222","<div><div style=""""><a style=""white-space:pre-wrap;""> for i in [1, 2, 3]:
   a /= 4
   a *= 2</a><a style=""""></a></div></div>","2","","1","","","2","2"
"","html-keyboard-response","225","760550","0.0-7.0-5.0-3.0-0.0","1902","<div><div style=""""><a style=""white-space:pre-wrap;""> for i in [1, 2, 3]:
   a /= 4
   a *= 2</a><a style=""""></a></div></div>","4","","1","","","4","3"
"","html-keyboard-response","226","761724","0.0-7.0-5.0-4.0-0.0","659","<div><div style=""""><a style=""white-space:pre-wrap;""> for i in [1, 2, 3]:
   a /= 4
   a *= 2</a><a style=""""></a></div></div>","1","","1","","","1","4"
"","html-keyboard-response","227","762701","0.0-7.0-5.0-5.0-0.0","463","<div><div style=""""><a style=""white-space:pre-wrap;""> for i in [1, 2, 3]:
   a /= 4
   a *= 2</a><a style=""""></a></div></div>","2","","1","","","2","5"
"","html-keyboard-response","228","763851","0.0-7.0-5.0-6.0-0.0","647","<div><div style=""""><a style=""white-space:pre-wrap;""> for i in [1, 2, 3]:
   a /= 4
   a *= 2</a><a style=""""></a></div></div>","backspace","","1","","","backspace",""
"","html-keyboard-response","229","772147","0.0-7.0-6.0-0.0-0.0","7786","<div><div style=""""><a style=""white-space:pre-wrap;""> while a <= 6:
   a = round_up(a*2.5)</a><a style=""""></a></div></div>","5","","1","","","5","0"
"","html-keyboard-response","230","775398","0.0-7.0-6.0-1.0-0.0","2744","<div><div style=""""><a style=""white-space:pre-wrap;""> while a <= 6:
   a = round_up(a*2.5)</a><a style=""""></a></div></div>","7","","0","","","13","1"
"","html-keyboard-response","232","780612","0.0-7.0-6.0-2.0-0.0","1187","<div><div style=""""><a style=""white-space:pre-wrap;""> while a <= 6:
   a = round_up(a*2.5)</a><a style=""""></a></div></div>","backspace","","1","","","backspace",""
"","html-keyboard-response","233","784788","0.0-7.0-7.0-0.0-0.0","3669","<div><div style=""""><a style=""white-space:pre-wrap;""> for i in [1, 2, 3]:
   a = average(a,5)</a><a style=""""></a></div></div>","9","","1","","","9","0"
"","html-keyboard-response","234","786489","0.0-7.0-7.0-1.0-0.0","1185","<div><div style=""""><a style=""white-space:pre-wrap;""> for i in [1, 2, 3]:
   a = average(a,5)</a><a style=""""></a></div></div>","7","","1","","","7","1"
"","html-keyboard-response","235","790927","0.0-7.0-7.0-2.0-0.0","3927","<div><div style=""""><a style=""white-space:pre-wrap;""> for i in [1, 2, 3]:
   a = average(a,5)</a><a style=""""></a></div></div>","6","","1","","","6","2"
"","html-keyboard-response","236","792525","0.0-7.0-7.0-3.0-0.0","1088","<div><div style=""""><a style=""white-space:pre-wrap;""> for i in [1, 2, 3]:
   a = average(a,5)</a><a style=""""></a></div></div>","backspace","","1","","","backspace",""
"","html-keyboard-response","237","797681","0.0-7.0-8.0-0.0-0.0","4643","<div><div style=""""><a style=""white-space:pre-wrap;""> while a >= 4:
   a += 2
   a /= 2</a><a style=""""></a></div></div>","8","","1","","","8","0"
"","html-keyboard-response","238","800398","0.0-7.0-8.0-1.0-0.0","2210","<div><div style=""""><a style=""white-space:pre-wrap;""> while a >= 4:
   a += 2
   a /= 2</a><a style=""""></a></div></div>","4","","1","","","4","1"
"","html-keyboard-response","239","804999","0.0-7.0-8.0-2.0-0.0","4091","<div><div style=""""><a style=""white-space:pre-wrap;""> while a >= 4:
   a += 2
   a /= 2</a><a style=""""></a></div></div>","10","","0","","","6","2"
"","html-keyboard-response","241","810649","0.0-7.0-8.0-3.0-0.0","1626","<div><div style=""""><a style=""white-space:pre-wrap;""> while a >= 4:
   a += 2
   a /= 2</a><a style=""""></a></div></div>","3","","1","","","3","3"
"","html-keyboard-response","242","811567","0.0-7.0-8.0-4.0-0.0","407","<div><div style=""""><a style=""white-space:pre-wrap;""> while a >= 4:
   a += 2
   a /= 2</a><a style=""""></a></div></div>","backspace","","1","","","backspace",""
"","html-keyboard-response","243","816970","0.0-7.0-9.0-0.0-0.0","4889","<div><div style=""""><a style=""white-space:pre-wrap;""> while a <= 9:
   a *= 2</a><a style=""""></a></div></div>","6","","1","","","6","0"
"","html-keyboard-response","244","820265","0.0-7.0-9.0-1.0-0.0","2782","<div><div style=""""><a style=""white-space:pre-wrap;""> while a <= 9:
   a *= 2</a><a style=""""></a></div></div>","12","","1","","","12","1"
"","html-keyboard-response","245","822420","0.0-7.0-9.0-2.0-0.0","1649","<div><div style=""""><a style=""white-space:pre-wrap;""> while a <= 9:
   a *= 2</a><a style=""""></a></div></div>","backspace","","1","","","backspace",""
"","html-keyboard-response","246","826380","0.0-7.0-10.0-0.0-0.0","3441","<div><div style=""""><a style=""white-space:pre-wrap;""> for i in [1, 2]:
   a += 6
   a -= 4</a><a style=""""></a></div></div>","18","","1","","","18","0"
"","html-keyboard-response","247","828720","0.0-7.0-10.0-1.0-0.0","1834","<div><div style=""""><a style=""white-space:pre-wrap;""> for i in [1, 2]:
   a += 6
   a -= 4</a><a style=""""></a></div></div>","14","","1","","","14","1"
"","html-keyboard-response","248","831324","0.0-7.0-10.0-2.0-0.0","2092","<div><div style=""""><a style=""white-space:pre-wrap;""> for i in [1, 2]:
   a += 6
   a -= 4</a><a style=""""></a></div></div>","20","","1","","","20","2"
"","html-keyboard-response","249","832945","0.0-7.0-10.0-3.0-0.0","1110","<div><div style=""""><a style=""white-space:pre-wrap;""> for i in [1, 2]:
   a += 6
   a -= 4</a><a style=""""></a></div></div>","16","","1","","","16","3"
"","html-keyboard-response","250","834077","0.0-7.0-10.0-4.0-0.0","622","<div><div style=""""><a style=""white-space:pre-wrap;""> for i in [1, 2]:
   a += 6
   a -= 4</a><a style=""""></a></div></div>","backspace","","1","","","backspace",""
"","html-keyboard-response","251","842128","0.0-7.0-11.0-0.0-0.0","7547","<div><div style=""""><a style=""white-space:pre-wrap;""> for i in [1, 2, 3, 4]:
   a -= 3</a><a style=""""></a></div></div>","13","","1","","","13","0"
"","html-keyboard-response","252","844400","0.0-7.0-11.0-1.0-0.0","1766","<div><div style=""""><a style=""white-space:pre-wrap;""> for i in [1, 2, 3, 4]:
   a -= 3</a><a style=""""></a></div></div>","10","","1","","","10","1"
"","html-keyboard-response","253","846799","0.0-7.0-11.0-2.0-0.0","1896","<div><div style=""""><a style=""white-space:pre-wrap;""> for i in [1, 2, 3, 4]:
   a -= 3</a><a style=""""></a></div></div>","7","","1","","","7","2"
"","html-keyboard-response","254","852151","0.0-7.0-11.0-3.0-0.0","4846","<div><div style=""""><a style=""white-space:pre-wrap;""> for i in [1, 2, 3, 4]:
   a -= 3</a><a style=""""></a></div></div>","4","","1","","","4","3"
"","html-keyboard-response","255","853316","0.0-7.0-11.0-4.0-0.0","649","<div><div style=""""><a style=""white-space:pre-wrap;""> for i in [1, 2, 3, 4]:
   a -= 3</a><a style=""""></a></div></div>","backspace","","1","","","backspace",""
"","html-keyboard-response","256","855042","0.0-8.0-1.0","1219","<p style=""font-size: 25px;"">Please press space to start the next program<br>>>>>>></p>"," ","","","","","",""
"","html-keyboard-response","257","856353","0.0-8.0-2.0","1310","<div><div style="" font-size:25px; color:green;""><a style=""white-space:pre-wrap;""> a = 16</a><a style=""""></a></div></div>","","null","","73","a = 16","",""
"","html-keyboard-response","258","858367","0.0-8.0-4.0-0.0-0.0","1500","<div><div style=""""><a style=""white-space:pre-wrap;""> for i in [1, 2]:
   a /= 2</a><a style=""""></a></div></div>","8","","1","","","8","0"
"","html-keyboard-response","259","860422","0.0-8.0-4.0-1.0-0.0","1544","<div><div style=""""><a style=""white-space:pre-wrap;""> for i in [1, 2]:
   a /= 2</a><a style=""""></a></div></div>","4","","1","","","4","1"
"","html-keyboard-response","260","861933","0.0-8.0-4.0-2.0-0.0","1000","<div><div style=""""><a style=""white-space:pre-wrap;""> for i in [1, 2]:
   a /= 2</a><a style=""""></a></div></div>","backspace","","1","","","backspace",""
"","html-keyboard-response","261","865512","0.0-8.0-5.0-0.0-0.0","3065","<div><div style=""""><a style=""white-space:pre-wrap;""> while a <= 11:
   a = round_up(a*1.5)</a><a style=""""></a></div></div>","6","","1","","","6","0"
"","html-keyboard-response","262","867501","0.0-8.0-5.0-1.0-0.0","1485","<div><div style=""""><a style=""white-space:pre-wrap;""> while a <= 11:
   a = round_up(a*1.5)</a><a style=""""></a></div></div>","9","","1","","","9","1"
"","html-keyboard-response","263","881824","0.0-8.0-5.0-2.0-0.0","13808","<div><div style=""""><a style=""white-space:pre-wrap;""> while a <= 11:
   a = round_up(a*1.5)</a><a style=""""></a></div></div>","14","","1","","","14","2"
"","html-keyboard-response","264","883314","0.0-8.0-5.0-3.0-0.0","979","<div><div style=""""><a style=""white-space:pre-wrap;""> while a <= 11:
   a = round_up(a*1.5)</a><a style=""""></a></div></div>","backspace","","1","","","backspace",""
"","html-keyboard-response","265","893553","0.0-8.0-6.0-0.0-0.0","9730","<div><div style=""""><a style=""white-space:pre-wrap;""> while a >= 13:
   a += 5
   a -= 6</a><a style=""""></a></div></div>","19","","1","","","19","0"
"","html-keyboard-response","266","895214","0.0-8.0-6.0-1.0-0.0","1144","<div><div style=""""><a style=""white-space:pre-wrap;""> while a >= 13:
   a += 5
   a -= 6</a><a style=""""></a></div></div>","13","","1","","","13","1"
"","html-keyboard-response","267","897604","0.0-8.0-6.0-2.0-0.0","1878","<div><div style=""""><a style=""white-space:pre-wrap;""> while a >= 13:
   a += 5
   a -= 6</a><a style=""""></a></div></div>","18","","1","","","18","2"
"","html-keyboard-response","268","899274","0.0-8.0-6.0-3.0-0.0","1163","<div><div style=""""><a style=""white-space:pre-wrap;""> while a >= 13:
   a += 5
   a -= 6</a><a style=""""></a></div></div>","12","","1","","","12","3"
"","html-keyboard-response","269","901456","0.0-8.0-6.0-4.0-0.0","1677","<div><div style=""""><a style=""white-space:pre-wrap;""> while a >= 13:
   a += 5
   a -= 6</a><a style=""""></a></div></div>","backspace","","1","","","backspace",""
"","html-keyboard-response","270","906972","0.0-8.0-7.0-0.0-0.0","5000","<div><div style=""""><a style=""white-space:pre-wrap;""> for i in [1, 2, 3]:
   a = average(a,4)</a><a style=""""></a></div></div>","8","","1","","","8","0"
"","html-keyboard-response","271","910223","0.0-8.0-7.0-1.0-0.0","2735","<div><div style=""""><a style=""white-space:pre-wrap;""> for i in [1, 2, 3]:
   a = average(a,4)</a><a style=""""></a></div></div>","6","","1","","","6","1"
"","html-keyboard-response","272","913499","0.0-8.0-7.0-2.0-0.0","2764","<div><div style=""""><a style=""white-space:pre-wrap;""> for i in [1, 2, 3]:
   a = average(a,4)</a><a style=""""></a></div></div>","5","","1","","","5","2"
"","html-keyboard-response","273","914320","0.0-8.0-7.0-3.0-0.0","318","<div><div style=""""><a style=""white-space:pre-wrap;""> for i in [1, 2, 3]:
   a = average(a,4)</a><a style=""""></a></div></div>","backspace","","1","","","backspace",""
"","html-keyboard-response","274","917501","0.0-8.0-8.0-0.0-0.0","2665","<div><div style=""""><a style=""white-space:pre-wrap;""> for i in [1, 2]:
   a *= 3
   a -= 11</a><a style=""""></a></div></div>","15","","1","","","15","0"
"","html-keyboard-response","275","920843","0.0-8.0-8.0-1.0-0.0","2839","<div><div style=""""><a style=""white-space:pre-wrap;""> for i in [1, 2]:
   a *= 3
   a -= 11</a><a style=""""></a></div></div>","4","","1","","","4","1"
"","html-keyboard-response","276","924366","0.0-8.0-8.0-2.0-0.0","3015","<div><div style=""""><a style=""white-space:pre-wrap;""> for i in [1, 2]:
   a *= 3
   a -= 11</a><a style=""""></a></div></div>","12","","1","","","12","2"
"","html-keyboard-response","277","925401","0.0-8.0-8.0-3.0-0.0","523","<div><div style=""""><a style=""white-space:pre-wrap;""> for i in [1, 2]:
   a *= 3
   a -= 11</a><a style=""""></a></div></div>","1","","1","","","1","3"
"","html-keyboard-response","278","928045","0.0-8.0-8.0-4.0-0.0","2139","<div><div style=""""><a style=""white-space:pre-wrap;""> for i in [1, 2]:
   a *= 3
   a -= 11</a><a style=""""></a></div></div>","backspace","","1","","","backspace",""
"","html-keyboard-response","279","930718","0.0-8.0-9.0-0.0-0.0","2169","<div><div style=""""><a style=""white-space:pre-wrap;""> for i in [1, 2]:
   a *= 6
   a /= 2</a><a style=""""></a></div></div>","6","","1","","","6","0"
"","html-keyboard-response","280","932518","0.0-8.0-9.0-1.0-0.0","1286","<div><div style=""""><a style=""white-space:pre-wrap;""> for i in [1, 2]:
   a *= 6
   a /= 2</a><a style=""""></a></div></div>","3","","1","","","3","1"
"","html-keyboard-response","281","934700","0.0-8.0-9.0-2.0-0.0","1672","<div><div style=""""><a style=""white-space:pre-wrap;""> for i in [1, 2]:
   a *= 6
   a /= 2</a><a style=""""></a></div></div>","18","","1","","","18","2"
"","html-keyboard-response","282","936666","0.0-8.0-9.0-3.0-0.0","1456","<div><div style=""""><a style=""white-space:pre-wrap;""> for i in [1, 2]:
   a *= 6
   a /= 2</a><a style=""""></a></div></div>","9","","1","","","9","3"
"","html-keyboard-response","283","937988","0.0-8.0-9.0-4.0-0.0","811","<div><div style=""""><a style=""white-space:pre-wrap;""> for i in [1, 2]:
   a *= 6
   a /= 2</a><a style=""""></a></div></div>","backspace","","1","","","backspace",""
"","html-keyboard-response","284","945245","0.0-8.0-10.0-0.0-0.0","6754","<div><div style=""""><a style=""white-space:pre-wrap;""> while a >= 7:
   a -= 2</a><a style=""""></a></div></div>","7","","1","","","7","0"
"","html-keyboard-response","285","946958","0.0-8.0-10.0-1.0-0.0","1199","<div><div style=""""><a style=""white-space:pre-wrap;""> while a >= 7:
   a -= 2</a><a style=""""></a></div></div>","5","","1","","","5","1"
"","html-keyboard-response","286","949432","0.0-8.0-10.0-2.0-0.0","1966","<div><div style=""""><a style=""white-space:pre-wrap;""> while a >= 7:
   a -= 2</a><a style=""""></a></div></div>","backspace","","1","","","backspace",""
"","html-keyboard-response","287","952496","0.0-8.0-11.0-0.0-0.0","2547","<div><div style=""""><a style=""white-space:pre-wrap;""> while a <= 7:
   a += 9
   a /= 2</a><a style=""""></a></div></div>","14","","1","","","14","0"
"","html-keyboard-response","288","953685","0.0-8.0-11.0-1.0-0.0","673","<div><div style=""""><a style=""white-space:pre-wrap;""> while a <= 7:
   a += 9
   a /= 2</a><a style=""""></a></div></div>","7","","1","","","7","1"
"","html-keyboard-response","289","957225","0.0-8.0-11.0-2.0-0.0","3026","<div><div style=""""><a style=""white-space:pre-wrap;""> while a <= 7:
   a += 9
   a /= 2</a><a style=""""></a></div></div>","16","","1","","","16","2"
"","html-keyboard-response","290","958941","0.0-8.0-11.0-3.0-0.0","1201","<div><div style=""""><a style=""white-space:pre-wrap;""> while a <= 7:
   a += 9
   a /= 2</a><a style=""""></a></div></div>","8","","1","","","8","3"
"","html-keyboard-response","291","962508","0.0-8.0-11.0-4.0-0.0","3058","<div><div style=""""><a style=""white-space:pre-wrap;""> while a <= 7:
   a += 9
   a /= 2</a><a style=""""></a></div></div>","backspace","","1","","","backspace",""
"","html-keyboard-response","292","965299","0.0-9.0-1.0","2287","<p style=""font-size: 25px;"">Please press space to start the next program<br>>>>>>></p>"," ","","","","","",""
"","html-keyboard-response","293","966763","0.0-9.0-2.0","1462","<div><div style="" font-size:25px; color:green;""><a style=""white-space:pre-wrap;""> a = 18</a><a style=""""></a></div></div>","","null","","28","a = 18","",""
"","html-keyboard-response","294","970973","0.0-9.0-4.0-0.0-0.0","3696","<div><div style=""""><a style=""white-space:pre-wrap;""> for i in [1, 2]:
   a /= 3
   a *= 2</a><a style=""""></a></div></div>","6","","1","","","6","0"
"","html-keyboard-response","295","972949","0.0-9.0-4.0-1.0-0.0","1471","<div><div style=""""><a style=""white-space:pre-wrap;""> for i in [1, 2]:
   a /= 3
   a *= 2</a><a style=""""></a></div></div>","12","","1","","","12","1"
"","html-keyboard-response","296","975877","0.0-9.0-4.0-2.0-0.0","2419","<div><div style=""""><a style=""white-space:pre-wrap;""> for i in [1, 2]:
   a /= 3
   a *= 2</a><a style=""""></a></div></div>","4","","1","","","4","2"
"","html-keyboard-response","297","977986","0.0-9.0-4.0-3.0-0.0","1599","<div><div style=""""><a style=""white-space:pre-wrap;""> for i in [1, 2]:
   a /= 3
   a *= 2</a><a style=""""></a></div></div>","8","","1","","","8","3"
"","html-keyboard-response","298","980478","0.0-9.0-4.0-4.0-0.0","1981","<div><div style=""""><a style=""white-space:pre-wrap;""> for i in [1, 2]:
   a /= 3
   a *= 2</a><a style=""""></a></div></div>","backspace","","1","","","backspace",""
"","html-keyboard-response","299","983510","0.0-9.0-5.0-0.0-0.0","2522","<div><div style=""""><a style=""white-space:pre-wrap;""> while a >= 2:
   a /= 2</a><a style=""""></a></div></div>","4","","1","","","4","0"
"","html-keyboard-response","300","984863","0.0-9.0-5.0-1.0-0.0","844","<div><div style=""""><a style=""white-space:pre-wrap;""> while a >= 2:
   a /= 2</a><a style=""""></a></div></div>","2","","1","","","2","1"
"","html-keyboard-response","301","986903","0.0-9.0-5.0-2.0-0.0","1528","<div><div style=""""><a style=""white-space:pre-wrap;""> while a >= 2:
   a /= 2</a><a style=""""></a></div></div>","1","","1","","","1","2"
"","html-keyboard-response","302","987999","0.0-9.0-5.0-3.0-0.0","590","<div><div style=""""><a style=""white-space:pre-wrap;""> while a >= 2:
   a /= 2</a><a style=""""></a></div></div>","backspace","","1","","","backspace",""
"","html-keyboard-response","303","991751","0.0-9.0-6.0-0.0-0.0","3241","<div><div style=""""><a style=""white-space:pre-wrap;""> while a <= 7:
   a += 2</a><a style=""""></a></div></div>","3","","1","","","3","0"
"","html-keyboard-response","304","993207","0.0-9.0-6.0-1.0-0.0","953","<div><div style=""""><a style=""white-space:pre-wrap;""> while a <= 7:
   a += 2</a><a style=""""></a></div></div>","5","","1","","","5","1"
"","html-keyboard-response","305","996089","0.0-9.0-6.0-2.0-0.0","2364","<div><div style=""""><a style=""white-space:pre-wrap;""> while a <= 7:
   a += 2</a><a style=""""></a></div></div>","7","","1","","","7","2"
"","html-keyboard-response","306","997338","0.0-9.0-6.0-3.0-0.0","739","<div><div style=""""><a style=""white-space:pre-wrap;""> while a <= 7:
   a += 2</a><a style=""""></a></div></div>","9","","1","","","9","3"
"","html-keyboard-response","307","998759","0.0-9.0-6.0-4.0-0.0","908","<div><div style=""""><a style=""white-space:pre-wrap;""> while a <= 7:
   a += 2</a><a style=""""></a></div></div>","backspace","","1","","","backspace",""
"","html-keyboard-response","308","1002856","0.0-9.0-7.0-0.0-0.0","3590","<div><div style=""""><a style=""white-space:pre-wrap;""> while a >= 6:
   a += 9
   a /= 3</a><a style=""""></a></div></div>","18","","1","","","18","0"
"","html-keyboard-response","309","1004080","0.0-9.0-7.0-1.0-0.0","712","<div><div style=""""><a style=""white-space:pre-wrap;""> while a >= 6:
   a += 9
   a /= 3</a><a style=""""></a></div></div>","6","","1","","","6","1"
"","html-keyboard-response","310","1007138","0.0-9.0-7.0-2.0-0.0","2552","<div><div style=""""><a style=""white-space:pre-wrap;""> while a >= 6:
   a += 9
   a /= 3</a><a style=""""></a></div></div>","15","","1","","","15","2"
"","html-keyboard-response","311","1009815","0.0-9.0-7.0-3.0-0.0","2174","<div><div style=""""><a style=""white-space:pre-wrap;""> while a >= 6:
   a += 9
   a /= 3</a><a style=""""></a></div></div>","5","","1","","","5","3"
"","html-keyboard-response","312","1010741","0.0-9.0-7.0-4.0-0.0","415","<div><div style=""""><a style=""white-space:pre-wrap;""> while a >= 6:
   a += 9
   a /= 3</a><a style=""""></a></div></div>","backspace","","1","","","backspace",""
"","html-keyboard-response","313","1016887","0.0-9.0-8.0-0.0-0.0","5639","<div><div style=""""><a style=""white-space:pre-wrap;""> while a <= 11:
   a = round_down(a*1.5)</a><a style=""""></a></div></div>","7","","1","","","7","0"
"","html-keyboard-response","314","1021510","0.0-9.0-8.0-1.0-0.0","4121","<div><div style=""""><a style=""white-space:pre-wrap;""> while a <= 11:
   a = round_down(a*1.5)</a><a style=""""></a></div></div>","10","","1","","","10","1"
"","html-keyboard-response","315","1025622","0.0-9.0-8.0-2.0-0.0","3598","<div><div style=""""><a style=""white-space:pre-wrap;""> while a <= 11:
   a = round_down(a*1.5)</a><a style=""""></a></div></div>","15","","1","","","15","2"
"","html-keyboard-response","316","1026450","0.0-9.0-8.0-3.0-0.0","322","<div><div style=""""><a style=""white-space:pre-wrap;""> while a <= 11:
   a = round_down(a*1.5)</a><a style=""""></a></div></div>","backspace","","1","","","backspace",""
"","html-keyboard-response","317","1030269","0.0-9.0-9.0-0.0-0.0","3307","<div><div style=""""><a style=""white-space:pre-wrap;""> for i in [1, 2]:
   a = average(a,3)</a><a style=""""></a></div></div>","9","","1","","","9","0"
"","html-keyboard-response","318","1033778","0.0-9.0-9.0-1.0-0.0","2998","<div><div style=""""><a style=""white-space:pre-wrap;""> for i in [1, 2]:
   a = average(a,3)</a><a style=""""></a></div></div>","6","","1","","","6","1"
"","html-keyboard-response","319","1034957","0.0-9.0-9.0-2.0-0.0","666","<div><div style=""""><a style=""white-space:pre-wrap;""> for i in [1, 2]:
   a = average(a,3)</a><a style=""""></a></div></div>","backspace","","1","","","backspace",""
"","html-keyboard-response","320","1037769","0.0-9.0-10.0-0.0-0.0","2306","<div><div style=""""><a style=""white-space:pre-wrap;""> for i in [1, 2, 3]:
   a *= 2
   a -= 5</a><a style=""""></a></div></div>","12","","1","","","12","0"
"","html-keyboard-response","321","1038892","0.0-9.0-10.0-1.0-0.0","619","<div><div style=""""><a style=""white-space:pre-wrap;""> for i in [1, 2, 3]:
   a *= 2
   a -= 5</a><a style=""""></a></div></div>","7","","1","","","7","1"
"","html-keyboard-response","322","1041287","0.0-9.0-10.0-2.0-0.0","1893","<div><div style=""""><a style=""white-space:pre-wrap;""> for i in [1, 2, 3]:
   a *= 2
   a -= 5</a><a style=""""></a></div></div>","14","","1","","","14","2"
"","html-keyboard-response","323","1043221","0.0-9.0-10.0-3.0-0.0","1430","<div><div style=""""><a style=""white-space:pre-wrap;""> for i in [1, 2, 3]:
   a *= 2
   a -= 5</a><a style=""""></a></div></div>","9","","1","","","9","3"
"","html-keyboard-response","324","1045051","0.0-9.0-10.0-4.0-0.0","1326","<div><div style=""""><a style=""white-space:pre-wrap;""> for i in [1, 2, 3]:
   a *= 2
   a -= 5</a><a style=""""></a></div></div>","18","","1","","","18","4"
"","html-keyboard-response","325","1046785","0.0-9.0-10.0-5.0-0.0","1221","<div><div style=""""><a style=""white-space:pre-wrap;""> for i in [1, 2, 3]:
   a *= 2
   a -= 5</a><a style=""""></a></div></div>","13","","1","","","13","5"
"","html-keyboard-response","326","1048530","0.0-9.0-10.0-6.0-0.0","1228","<div><div style=""""><a style=""white-space:pre-wrap;""> for i in [1, 2, 3]:
   a *= 2
   a -= 5</a><a style=""""></a></div></div>","backspace","","1","","","backspace",""
"","html-keyboard-response","327","1053022","0.0-9.0-11.0-0.0-0.0","3982","<div><div style=""""><a style=""white-space:pre-wrap;""> while a >= 6:
   a += 4
   a -= 7</a><a style=""""></a></div></div>","17","","1","","","17","0"
"","html-keyboard-response","328","1055363","0.0-9.0-11.0-1.0-0.0","1825","<div><div style=""""><a style=""white-space:pre-wrap;""> while a >= 6:
   a += 4
   a -= 7</a><a style=""""></a></div></div>","10","","1","","","10","1"
"","html-keyboard-response","329","1058391","0.0-9.0-11.0-2.0-0.0","2525","<div><div style=""""><a style=""white-space:pre-wrap;""> while a >= 6:
   a += 4
   a -= 7</a><a style=""""></a></div></div>","14","","1","","","14","2"
"","html-keyboard-response","330","1061054","0.0-9.0-11.0-3.0-0.0","2157","<div><div style=""""><a style=""white-space:pre-wrap;""> while a >= 6:
   a += 4
   a -= 7</a><a style=""""></a></div></div>","7","","1","","","7","3"
"","html-keyboard-response","331","1063376","0.0-9.0-11.0-4.0-0.0","1817","<div><div style=""""><a style=""white-space:pre-wrap;""> while a >= 6:
   a += 4
   a -= 7</a><a style=""""></a></div></div>","11","","1","","","11","4"
"","html-keyboard-response","332","1064692","0.0-9.0-11.0-5.0-0.0","800","<div><div style=""""><a style=""white-space:pre-wrap;""> while a >= 6:
   a += 4
   a -= 7</a><a style=""""></a></div></div>","4","","1","","","4","5"
"","html-keyboard-response","333","1066076","0.0-9.0-11.0-6.0-0.0","879","<div><div style=""""><a style=""white-space:pre-wrap;""> while a >= 6:
   a += 4
   a -= 7</a><a style=""""></a></div></div>","backspace","","1","","","backspace",""
"","html-keyboard-response","334","1101094","0.0-10.0-0.0-0.0","34508","<p style=""position:absolute; top:30%; font-size:25px; color:green;"" >Take a short break now</p>"," ","","","","","",""
"","html-keyboard-response","335","1102595","0.0-10.0-1.0","1500","<p style=""font-size: 25px;"">Please press space to start the next program<br>>>>>>></p>"," ","","","","","",""
"","html-keyboard-response","336","1103871","0.0-10.0-2.0","1274","<div><div style="" font-size:25px; color:green;""><a style=""white-space:pre-wrap;""> a = 11</a><a style=""""></a></div></div>","","null","","64","a = 11","",""
"","html-keyboard-response","337","1106836","0.0-10.0-4.0-0.0-0.0","2453","<div><div style=""""><a style=""white-space:pre-wrap;""> for i in [1, 2]:
   a += 4
   a /= 3</a><a style=""""></a></div></div>","15","","1","","","15","0"
"","html-keyboard-response","338","1107997","0.0-10.0-4.0-1.0-0.0","656","<div><div style=""""><a style=""white-space:pre-wrap;""> for i in [1, 2]:
   a += 4
   a /= 3</a><a style=""""></a></div></div>","5","","1","","","5","1"
"","html-keyboard-response","339","1109538","0.0-10.0-4.0-2.0-0.0","1034","<div><div style=""""><a style=""white-space:pre-wrap;""> for i in [1, 2]:
   a += 4
   a /= 3</a><a style=""""></a></div></div>","9","","1","","","9","2"
"","html-keyboard-response","340","1110610","0.0-10.0-4.0-3.0-0.0","561","<div><div style=""""><a style=""white-space:pre-wrap;""> for i in [1, 2]:
   a += 4
   a /= 3</a><a style=""""></a></div></div>","3","","1","","","3","3"
"","html-keyboard-response","341","1111714","0.0-10.0-4.0-4.0-0.0","592","<div><div style=""""><a style=""white-space:pre-wrap;""> for i in [1, 2]:
   a += 4
   a /= 3</a><a style=""""></a></div></div>","backspace","","1","","","backspace",""
"","html-keyboard-response","342","1121218","0.0-10.0-5.0-0.0-0.0","8989","<div><div style=""""><a style=""white-space:pre-wrap;""> for i in [1, 2]:
   a = round_down(a*2.5)</a><a style=""""></a></div></div>","7","","1","","","7","0"
"","html-keyboard-response","343","1133165","0.0-10.0-5.0-1.0-0.0","11442","<div><div style=""""><a style=""white-space:pre-wrap;""> for i in [1, 2]:
   a = round_down(a*2.5)</a><a style=""""></a></div></div>","17","","1","","","17","1"
"","html-keyboard-response","344","1134702","0.0-10.0-5.0-2.0-0.0","1035","<div><div style=""""><a style=""white-space:pre-wrap;""> for i in [1, 2]:
   a = round_down(a*2.5)</a><a style=""""></a></div></div>","backspace","","1","","","backspace",""
"","html-keyboard-response","345","1138530","0.0-10.0-6.0-0.0-0.0","3310","<div><div style=""""><a style=""white-space:pre-wrap;""> while a >= 3:
   a = average(a,1)</a><a style=""""></a></div></div>","9","","1","","","9","0"
"","html-keyboard-response","346","1142618","0.0-10.0-6.0-1.0-0.0","3583","<div><div style=""""><a style=""white-space:pre-wrap;""> while a >= 3:
   a = average(a,1)</a><a style=""""></a></div></div>","5","","1","","","5","1"
"","html-keyboard-response","347","1147753","0.0-10.0-6.0-2.0-0.0","4632","<div><div style=""""><a style=""white-space:pre-wrap;""> while a >= 3:
   a = average(a,1)</a><a style=""""></a></div></div>","3","","1","","","3","2"
"","html-keyboard-response","348","1150606","0.0-10.0-6.0-3.0-0.0","2339","<div><div style=""""><a style=""white-space:pre-wrap;""> while a >= 3:
   a = average(a,1)</a><a style=""""></a></div></div>","2","","1","","","2","3"
"","html-keyboard-response","349","1152231","0.0-10.0-6.0-4.0-0.0","1117","<div><div style=""""><a style=""white-space:pre-wrap;""> while a >= 3:
   a = average(a,1)</a><a style=""""></a></div></div>","backspace","","1","","","backspace",""
"","html-keyboard-response","350","1155269","0.0-10.0-7.0-0.0-0.0","2524","<div><div style=""""><a style=""white-space:pre-wrap;""> for i in [1, 2]:
   a *= 3
   a -= 1</a><a style=""""></a></div></div>","6","","1","","","6","0"
"","html-keyboard-response","351","1160406","0.0-10.0-7.0-1.0-0.0","4627","<div><div style=""""><a style=""white-space:pre-wrap;""> for i in [1, 2]:
   a *= 3
   a -= 1</a><a style=""""></a></div></div>","5","","1","","","5","1"
"","html-keyboard-response","352","1162607","0.0-10.0-7.0-2.0-0.0","1683","<div><div style=""""><a style=""white-space:pre-wrap;""> for i in [1, 2]:
   a *= 3
   a -= 1</a><a style=""""></a></div></div>","15","","1","","","15","2"
"","html-keyboard-response","353","1164598","0.0-10.0-7.0-3.0-0.0","1482","<div><div style=""""><a style=""white-space:pre-wrap;""> for i in [1, 2]:
   a *= 3
   a -= 1</a><a style=""""></a></div></div>","14","","1","","","14","3"
"","html-keyboard-response","354","1167025","0.0-10.0-7.0-4.0-0.0","1917","<div><div style=""""><a style=""white-space:pre-wrap;""> for i in [1, 2]:
   a *= 3
   a -= 1</a><a style=""""></a></div></div>","backspace","","1","","","backspace",""
"","html-keyboard-response","355","1171756","0.0-10.0-8.0-0.0-0.0","4219","<div><div style=""""><a style=""white-space:pre-wrap;""> for i in [1, 2, 3]:
   a -= 5
   a += 1</a><a style=""""></a></div></div>","9","","1","","","9","0"
"","html-keyboard-response","356","1174536","0.0-10.0-8.0-1.0-0.0","2276","<div><div style=""""><a style=""white-space:pre-wrap;""> for i in [1, 2, 3]:
   a -= 5
   a += 1</a><a style=""""></a></div></div>","10","","1","","","10","1"
"","html-keyboard-response","357","1176946","0.0-10.0-8.0-2.0-0.0","1904","<div><div style=""""><a style=""white-space:pre-wrap;""> for i in [1, 2, 3]:
   a -= 5
   a += 1</a><a style=""""></a></div></div>","5","","1","","","5","2"
"","html-keyboard-response","358","1178580","0.0-10.0-8.0-3.0-0.0","1132","<div><div style=""""><a style=""white-space:pre-wrap;""> for i in [1, 2, 3]:
   a -= 5
   a += 1</a><a style=""""></a></div></div>","6","","1","","","6","3"
"","html-keyboard-response","359","1183141","0.0-10.0-8.0-4.0-0.0","4044","<div><div style=""""><a style=""white-space:pre-wrap;""> for i in [1, 2, 3]:
   a -= 5
   a += 1</a><a style=""""></a></div></div>","1","","1","","","1","4"
"","html-keyboard-response","360","1184111","0.0-10.0-8.0-5.0-0.0","457","<div><div style=""""><a style=""white-space:pre-wrap;""> for i in [1, 2, 3]:
   a -= 5
   a += 1</a><a style=""""></a></div></div>","2","","1","","","2","5"
"","html-keyboard-response","361","1185493","0.0-10.0-8.0-6.0-0.0","877","<div><div style=""""><a style=""white-space:pre-wrap;""> for i in [1, 2, 3]:
   a -= 5
   a += 1</a><a style=""""></a></div></div>","backspace","","1","","","backspace",""
"","html-keyboard-response","362","1190481","0.0-10.0-9.0-0.0-0.0","4473","<div><div style=""""><a style=""white-space:pre-wrap;""> while a <= 15:
   a *= 3</a><a style=""""></a></div></div>","6","","1","","","6","0"
"","html-keyboard-response","363","1193268","0.0-10.0-9.0-1.0-0.0","2279","<div><div style=""""><a style=""white-space:pre-wrap;""> while a <= 15:
   a *= 3</a><a style=""""></a></div></div>","18","","1","","","18","1"
"","html-keyboard-response","364","1194924","0.0-10.0-9.0-2.0-0.0","1144","<div><div style=""""><a style=""white-space:pre-wrap;""> while a <= 15:
   a *= 3</a><a style=""""></a></div></div>","backspace","","1","","","backspace",""
"","html-keyboard-response","365","1198460","0.0-10.0-10.0-0.0-0.0","3030","<div><div style=""""><a style=""white-space:pre-wrap;""> for i in [1, 2]:
   a /= 3
   a *= 2</a><a style=""""></a></div></div>","6","","1","","","6","0"
"","html-keyboard-response","366","1200396","0.0-10.0-10.0-1.0-0.0","1425","<div><div style=""""><a style=""white-space:pre-wrap;""> for i in [1, 2]:
   a /= 3
   a *= 2</a><a style=""""></a></div></div>","12","","1","","","12","1"
"","html-keyboard-response","367","1203226","0.0-10.0-10.0-2.0-0.0","2324","<div><div style=""""><a style=""white-space:pre-wrap;""> for i in [1, 2]:
   a /= 3
   a *= 2</a><a style=""""></a></div></div>","4","","1","","","4","2"
"","html-keyboard-response","368","1204932","0.0-10.0-10.0-3.0-0.0","1201","<div><div style=""""><a style=""white-space:pre-wrap;""> for i in [1, 2]:
   a /= 3
   a *= 2</a><a style=""""></a></div></div>","8","","1","","","8","3"
"","html-keyboard-response","369","1205888","0.0-10.0-10.0-4.0-0.0","453","<div><div style=""""><a style=""white-space:pre-wrap;""> for i in [1, 2]:
   a /= 3
   a *= 2</a><a style=""""></a></div></div>","backspace","","1","","","backspace",""
"","html-keyboard-response","370","1210597","0.0-10.0-11.0-0.0-0.0","4195","<div><div style=""""><a style=""white-space:pre-wrap;""> for i in [1, 2, 3]:
   a += 4</a><a style=""""></a></div></div>","12","","1","","","12","0"
"","html-keyboard-response","371","1213486","0.0-10.0-11.0-1.0-0.0","2376","<div><div style=""""><a style=""white-space:pre-wrap;""> for i in [1, 2, 3]:
   a += 4</a><a style=""""></a></div></div>","16","","1","","","16","1"
"","html-keyboard-response","372","1215828","0.0-10.0-11.0-2.0-0.0","1836","<div><div style=""""><a style=""white-space:pre-wrap;""> for i in [1, 2, 3]:
   a += 4</a><a style=""""></a></div></div>","20","","1","","","20","2"
"","html-keyboard-response","373","1216870","0.0-10.0-11.0-3.0-0.0","531","<div><div style=""""><a style=""white-space:pre-wrap;""> for i in [1, 2, 3]:
   a += 4</a><a style=""""></a></div></div>","backspace","","1","","","backspace",""
"","html-keyboard-response","374","1219799","0.0-11.0-1.0","2427","<p style=""font-size: 25px;"">Please press space to start the next program<br>>>>>>></p>"," ","","","","","",""
"","html-keyboard-response","375","1222671","0.0-11.0-2.0","2870","<div><div style="" font-size:25px; color:green;""><a style=""white-space:pre-wrap;""> a = 9</a><a style=""""></a></div></div>","","null","","91","a = 9","",""
"","html-keyboard-response","376","1226181","0.0-11.0-4.0-0.0-0.0","3006","<div><div style=""""><a style=""white-space:pre-wrap;""> while a >= 2:
   a /= 3</a><a style=""""></a></div></div>","3","","1","","","3","0"
"","html-keyboard-response","377","1228614","0.0-11.0-4.0-1.0-0.0","1927","<div><div style=""""><a style=""white-space:pre-wrap;""> while a >= 2:
   a /= 3</a><a style=""""></a></div></div>","1","","1","","","1","1"
"","html-keyboard-response","378","1229881","0.0-11.0-4.0-2.0-0.0","763","<div><div style=""""><a style=""white-space:pre-wrap;""> while a >= 2:
   a /= 3</a><a style=""""></a></div></div>","backspace","","1","","","backspace",""
"","html-keyboard-response","379","1232431","0.0-11.0-5.0-0.0-0.0","2048","<div><div style=""""><a style=""white-space:pre-wrap;""> for i in [1, 2, 3]:
   a += 6</a><a style=""""></a></div></div>","7","","1","","","7","0"
"","html-keyboard-response","380","1234335","0.0-11.0-5.0-1.0-0.0","1393","<div><div style=""""><a style=""white-space:pre-wrap;""> for i in [1, 2, 3]:
   a += 6</a><a style=""""></a></div></div>","13","","1","","","13","1"
"","html-keyboard-response","381","1236219","0.0-11.0-5.0-2.0-0.0","1367","<div><div style=""""><a style=""white-space:pre-wrap;""> for i in [1, 2, 3]:
   a += 6</a><a style=""""></a></div></div>","19","","1","","","19","2"
"","html-keyboard-response","382","1237791","0.0-11.0-5.0-3.0-0.0","1059","<div><div style=""""><a style=""white-space:pre-wrap;""> for i in [1, 2, 3]:
   a += 6</a><a style=""""></a></div></div>","backspace","","1","","","backspace",""
"","html-keyboard-response","383","1246141","0.0-11.0-6.0-0.0-0.0","7845","<div><div style=""""><a style=""white-space:pre-wrap;""> for i in [1, 2]:
   a += 1
   a -= 8</a><a style=""""></a></div></div>","14","","0","","","20","0"
"","html-keyboard-response","385","1250509","0.0-11.0-6.0-1.0-0.0","348","<div><div style=""""><a style=""white-space:pre-wrap;""> for i in [1, 2]:
   a += 1
   a -= 8</a><a style=""""></a></div></div>","12","","1","","","12","1"
"","html-keyboard-response","386","1256611","0.0-11.0-6.0-2.0-0.0","5595","<div><div style=""""><a style=""white-space:pre-wrap;""> for i in [1, 2]:
   a += 1
   a -= 8</a><a style=""""></a></div></div>","13","","1","","","13","2"
"","html-keyboard-response","387","1259249","0.0-11.0-6.0-3.0-0.0","2134","<div><div style=""""><a style=""white-space:pre-wrap;""> for i in [1, 2]:
   a += 1
   a -= 8</a><a style=""""></a></div></div>","5","","1","","","5","3"
"","html-keyboard-response","388","1261050","0.0-11.0-6.0-4.0-0.0","1286","<div><div style=""""><a style=""white-space:pre-wrap;""> for i in [1, 2]:
   a += 1
   a -= 8</a><a style=""""></a></div></div>","6","","0","","","backspace",""
"","html-keyboard-response","389","1265073","0.0-11.0-6.0-4.0-1.0-0.0","null","<div><p style=""font-size:25px; color:green;"">end of loop<br>>>>>>></p>
						<div>Hit the ""end loop"" key to continue</div></div>","null","","","","","",""
"","html-keyboard-response","390","1269784","0.0-11.0-6.0-4.1-0.1","4707","<div><div style=""""><a style=""white-space:pre-wrap;""> for i in [1, 2]:
   a += 1
   a -= 8</a><a style=""""></a></div></div>","backspace","","1","","","backspace",""
"","html-keyboard-response","391","1275414","0.0-11.0-7.0-0.0-0.0","5122","<div><div style=""""><a style=""white-space:pre-wrap;""> while a <= 6:
   a *= 3
   a -= 9</a><a style=""""></a></div></div>","15","","1","","","15","0"
"","html-keyboard-response","392","1277903","0.0-11.0-7.0-1.0-0.0","1976","<div><div style=""""><a style=""white-space:pre-wrap;""> while a <= 6:
   a *= 3
   a -= 9</a><a style=""""></a></div></div>","6","","1","","","6","1"
"","html-keyboard-response","393","1280540","0.0-11.0-7.0-2.0-0.0","2124","<div><div style=""""><a style=""white-space:pre-wrap;""> while a <= 6:
   a *= 3
   a -= 9</a><a style=""""></a></div></div>","18","","1","","","18","2"
"","html-keyboard-response","394","1282045","0.0-11.0-7.0-3.0-0.0","1002","<div><div style=""""><a style=""white-space:pre-wrap;""> while a <= 6:
   a *= 3
   a -= 9</a><a style=""""></a></div></div>","9","","1","","","9","3"
"","html-keyboard-response","395","1287132","0.0-11.0-7.0-4.0-0.0","4571","<div><div style=""""><a style=""white-space:pre-wrap;""> while a <= 6:
   a *= 3
   a -= 9</a><a style=""""></a></div></div>","backspace","","1","","","backspace",""
"","html-keyboard-response","396","1292239","0.0-11.0-8.0-0.0-0.0","4591","<div><div style=""""><a style=""white-space:pre-wrap;""> while a >= 3:
   a = average(a, 1)</a><a style=""""></a></div></div>","5","","1","","","5","0"
"","html-keyboard-response","397","1294321","0.0-11.0-8.0-1.0-0.0","1568","<div><div style=""""><a style=""white-space:pre-wrap;""> while a >= 3:
   a = average(a, 1)</a><a style=""""></a></div></div>","3","","1","","","3","1"
"","html-keyboard-response","398","1296730","0.0-11.0-8.0-2.0-0.0","1902","<div><div style=""""><a style=""white-space:pre-wrap;""> while a >= 3:
   a = average(a, 1)</a><a style=""""></a></div></div>","2","","1","","","2","2"
"","html-keyboard-response","399","1299102","0.0-11.0-8.0-3.0-0.0","1855","<div><div style=""""><a style=""white-space:pre-wrap;""> while a >= 3:
   a = average(a, 1)</a><a style=""""></a></div></div>","backspace","","1","","","backspace",""
"","html-keyboard-response","400","1303428","0.0-11.0-9.0-0.0-0.0","3818","<div><div style=""""><a style=""white-space:pre-wrap;""> while a <= 9:
   a -= 1
   a *= 5</a><a style=""""></a></div></div>","1","","1","","","1","0"
"","html-keyboard-response","401","1304770","0.0-11.0-9.0-1.0-0.0","827","<div><div style=""""><a style=""white-space:pre-wrap;""> while a <= 9:
   a -= 1
   a *= 5</a><a style=""""></a></div></div>","5","","1","","","5","1"
"","html-keyboard-response","402","1307064","0.0-11.0-9.0-2.0-0.0","1777","<div><div style=""""><a style=""white-space:pre-wrap;""> while a <= 9:
   a -= 1
   a *= 5</a><a style=""""></a></div></div>","4","","1","","","4","2"
"","html-keyboard-response","403","1309847","0.0-11.0-9.0-3.0-0.0","2268","<div><div style=""""><a style=""white-space:pre-wrap;""> while a <= 9:
   a -= 1
   a *= 5</a><a style=""""></a></div></div>","20","","1","","","20","3"
"","html-keyboard-response","404","1311749","0.0-11.0-9.0-4.0-0.0","1388","<div><div style=""""><a style=""white-space:pre-wrap;""> while a <= 9:
   a -= 1
   a *= 5</a><a style=""""></a></div></div>","backspace","","1","","","backspace",""
"","html-keyboard-response","405","1315177","0.0-11.0-10.0-0.0-0.0","2924","<div><div style=""""><a style=""white-space:pre-wrap;""> for i in [1, 2, 3]:
   a -= 3</a><a style=""""></a></div></div>","17","","1","","","17","0"
"","html-keyboard-response","406","1317325","0.0-11.0-10.0-1.0-0.0","1635","<div><div style=""""><a style=""white-space:pre-wrap;""> for i in [1, 2, 3]:
   a -= 3</a><a style=""""></a></div></div>","14","","1","","","14","1"
"","html-keyboard-response","407","1320805","0.0-11.0-10.0-2.0-0.0","2967","<div><div style=""""><a style=""white-space:pre-wrap;""> for i in [1, 2, 3]:
   a -= 3</a><a style=""""></a></div></div>","11","","1","","","11","2"
"","html-keyboard-response","408","1322052","0.0-11.0-10.0-3.0-0.0","736","<div><div style=""""><a style=""white-space:pre-wrap;""> for i in [1, 2, 3]:
   a -= 3</a><a style=""""></a></div></div>","backspace","","1","","","backspace",""
"","html-keyboard-response","409","1326736","0.0-11.0-11.0-0.0-0.0","4174","<div><div style=""""><a style=""white-space:pre-wrap;""> for i in [1, 2]:
   a -= 5</a><a style=""""></a></div></div>","6","","1","","","6","0"
"","html-keyboard-response","410","1329055","0.0-11.0-11.0-1.0-0.0","1816","<div><div style=""""><a style=""white-space:pre-wrap;""> for i in [1, 2]:
   a -= 5</a><a style=""""></a></div></div>","1","","1","","","1","1"
"","html-keyboard-response","411","1330424","0.0-11.0-11.0-2.0-0.0","862","<div><div style=""""><a style=""white-space:pre-wrap;""> for i in [1, 2]:
   a -= 5</a><a style=""""></a></div></div>","backspace","","1","","","backspace",""
"","html-keyboard-response","412","1429982","0.0-12.0-0.0-0.0","99044","<p style=""position:absolute; top:30%; font-size:25px; color:green;"" >Take a short break now</p>"," ","","","","","",""
"","html-keyboard-response","413","1432437","0.0-12.0-1.0","2454","<p style=""font-size: 25px;"">Please press space to start the next program<br>>>>>>></p>"," ","","","","","",""
"","html-keyboard-response","414","1433751","0.0-12.0-2.0","1314","<div><div style="" font-size:25px; color:green;""><a style=""white-space:pre-wrap;""> a = 8</a><a style=""""></a></div></div>","","null","","46","a = 8","",""
"","html-keyboard-response","415","1438139","0.0-12.0-4.0-0.0-0.0","3884","<div><div style=""""><a style=""white-space:pre-wrap;""> while a <= 17:
   a -= 2
   a += 6</a><a style=""""></a></div></div>","6","","1","","","6","0"
"","html-keyboard-response","416","1439234","0.0-12.0-4.0-1.0-0.0","584","<div><div style=""""><a style=""white-space:pre-wrap;""> while a <= 17:
   a -= 2
   a += 6</a><a style=""""></a></div></div>","12","","1","","","12","1"
"","html-keyboard-response","417","1442909","0.0-12.0-4.0-2.0-0.0","3169","<div><div style=""""><a style=""white-space:pre-wrap;""> while a <= 17:
   a -= 2
   a += 6</a><a style=""""></a></div></div>","10","","1","","","10","2"
"","html-keyboard-response","418","1445385","0.0-12.0-4.0-3.0-0.0","1965","<div><div style=""""><a style=""white-space:pre-wrap;""> while a <= 17:
   a -= 2
   a += 6</a><a style=""""></a></div></div>","16","","1","","","16","3"
"","html-keyboard-response","419","1447824","0.0-12.0-4.0-4.0-0.0","1931","<div><div style=""""><a style=""white-space:pre-wrap;""> while a <= 17:
   a -= 2
   a += 6</a><a style=""""></a></div></div>","14","","1","","","14","4"
"","html-keyboard-response","420","1448911","0.0-12.0-4.0-5.0-0.0","582","<div><div style=""""><a style=""white-space:pre-wrap;""> while a <= 17:
   a -= 2
   a += 6</a><a style=""""></a></div></div>","20","","1","","","20","5"
"","html-keyboard-response","421","1450202","0.0-12.0-4.0-6.0-0.0","781","<div><div style=""""><a style=""white-space:pre-wrap;""> while a <= 17:
   a -= 2
   a += 6</a><a style=""""></a></div></div>","backspace","","1","","","backspace",""
"","html-keyboard-response","422","1453417","0.0-12.0-5.0-0.0-0.0","2707","<div><div style=""""><a style=""white-space:pre-wrap;""> while a >= 8:
   a /= 2</a><a style=""""></a></div></div>","10","","1","","","10","0"
"","html-keyboard-response","423","1454947","0.0-12.0-5.0-1.0-0.0","1020","<div><div style=""""><a style=""white-space:pre-wrap;""> while a >= 8:
   a /= 2</a><a style=""""></a></div></div>","5","","1","","","5","1"
"","html-keyboard-response","424","1455853","0.0-12.0-5.0-2.0-0.0","404","<div><div style=""""><a style=""white-space:pre-wrap;""> while a >= 8:
   a /= 2</a><a style=""""></a></div></div>","backspace","","1","","","backspace",""
"","html-keyboard-response","425","1462824","0.0-12.0-6.0-0.0-0.0","6461","<div><div style=""""><a style=""white-space:pre-wrap;""> for i in [1, 2, 3]:
   a = round_up(a*1.5)</a><a style=""""></a></div></div>","8","","1","","","8","0"
"","html-keyboard-response","426","1466655","0.0-12.0-6.0-1.0-0.0","3328","<div><div style=""""><a style=""white-space:pre-wrap;""> for i in [1, 2, 3]:
   a = round_up(a*1.5)</a><a style=""""></a></div></div>","12","","1","","","12","1"
"","html-keyboard-response","427","1469694","0.0-12.0-6.0-2.0-0.0","2525","<div><div style=""""><a style=""white-space:pre-wrap;""> for i in [1, 2, 3]:
   a = round_up(a*1.5)</a><a style=""""></a></div></div>","18","","1","","","18","2"
"","html-keyboard-response","428","1471199","0.0-12.0-6.0-3.0-0.0","1004","<div><div style=""""><a style=""white-space:pre-wrap;""> for i in [1, 2, 3]:
   a = round_up(a*1.5)</a><a style=""""></a></div></div>","backspace","","1","","","backspace",""
"","html-keyboard-response","429","1478904","0.0-12.0-7.0-0.0-0.0","7198","<div><div style=""""><a style=""white-space:pre-wrap;""> while a >= 4:
   a = average(a,2)</a><a style=""""></a></div></div>","10","","1","","","10","0"
"","html-keyboard-response","430","1480840","0.0-12.0-7.0-1.0-0.0","1432","<div><div style=""""><a style=""white-space:pre-wrap;""> while a >= 4:
   a = average(a,2)</a><a style=""""></a></div></div>","6","","1","","","6","1"
"","html-keyboard-response","431","1483303","0.0-12.0-7.0-2.0-0.0","1961","<div><div style=""""><a style=""white-space:pre-wrap;""> while a >= 4:
   a = average(a,2)</a><a style=""""></a></div></div>","4","","1","","","4","2"
"","html-keyboard-response","432","1484747","0.0-12.0-7.0-3.0-0.0","933","<div><div style=""""><a style=""white-space:pre-wrap;""> while a >= 4:
   a = average(a,2)</a><a style=""""></a></div></div>","3","","1","","","3","3"
"","html-keyboard-response","433","1485761","0.0-12.0-7.0-4.0-0.0","505","<div><div style=""""><a style=""white-space:pre-wrap;""> while a >= 4:
   a = average(a,2)</a><a style=""""></a></div></div>","backspace","","1","","","backspace",""
"","html-keyboard-response","434","1489843","0.0-12.0-8.0-0.0-0.0","3577","<div><div style=""""><a style=""white-space:pre-wrap;""> while a <= 5:
   a += 7
   a /= 2</a><a style=""""></a></div></div>","10","","1","","","10","0"
"","html-keyboard-response","435","1491554","0.0-12.0-8.0-1.0-0.0","1207","<div><div style=""""><a style=""white-space:pre-wrap;""> while a <= 5:
   a += 7
   a /= 2</a><a style=""""></a></div></div>","5","","1","","","5","1"
"","html-keyboard-response","436","1493195","0.0-12.0-8.0-2.0-0.0","1126","<div><div style=""""><a style=""white-space:pre-wrap;""> while a <= 5:
   a += 7
   a /= 2</a><a style=""""></a></div></div>","12","","1","","","12","2"
"","html-keyboard-response","437","1494584","0.0-12.0-8.0-3.0-0.0","885","<div><div style=""""><a style=""white-space:pre-wrap;""> while a <= 5:
   a += 7
   a /= 2</a><a style=""""></a></div></div>","6","","1","","","6","3"
"","html-keyboard-response","438","1495743","0.0-12.0-8.0-4.0-0.0","648","<div><div style=""""><a style=""white-space:pre-wrap;""> while a <= 5:
   a += 7
   a /= 2</a><a style=""""></a></div></div>","backspace","","1","","","backspace",""
"","html-keyboard-response","439","1498510","0.0-12.0-9.0-0.0-0.0","2253","<div><div style=""""><a style=""white-space:pre-wrap;""> for i in [1, 2, 3, 4]:
   a += 3</a><a style=""""></a></div></div>","9","","1","","","9","0"
"","html-keyboard-response","440","1499709","0.0-12.0-9.0-1.0-0.0","682","<div><div style=""""><a style=""white-space:pre-wrap;""> for i in [1, 2, 3, 4]:
   a += 3</a><a style=""""></a></div></div>","12","","1","","","12","1"
"","html-keyboard-response","441","1501221","0.0-12.0-9.0-2.0-0.0","1002","<div><div style=""""><a style=""white-space:pre-wrap;""> for i in [1, 2, 3, 4]:
   a += 3</a><a style=""""></a></div></div>","15","","1","","","15","2"
"","html-keyboard-response","442","1502164","0.0-12.0-9.0-3.0-0.0","435","<div><div style=""""><a style=""white-space:pre-wrap;""> for i in [1, 2, 3, 4]:
   a += 3</a><a style=""""></a></div></div>","18","","1","","","18","3"
"","html-keyboard-response","443","1503262","0.0-12.0-9.0-4.0-0.0","582","<div><div style=""""><a style=""white-space:pre-wrap;""> for i in [1, 2, 3, 4]:
   a += 3</a><a style=""""></a></div></div>","backspace","","1","","","backspace",""
"","html-keyboard-response","444","1508213","0.0-12.0-10.0-0.0-0.0","4438","<div><div style=""""><a style=""white-space:pre-wrap;""> while a >= 12:
   a /= 3
   a *= 2</a><a style=""""></a></div></div>","6","","1","","","6","0"
"","html-keyboard-response","445","1510675","0.0-12.0-10.0-1.0-0.0","1951","<div><div style=""""><a style=""white-space:pre-wrap;""> while a >= 12:
   a /= 3
   a *= 2</a><a style=""""></a></div></div>","12","","1","","","12","1"
"","html-keyboard-response","446","1514749","0.0-12.0-10.0-2.0-0.0","3556","<div><div style=""""><a style=""white-space:pre-wrap;""> while a >= 12:
   a /= 3
   a *= 2</a><a style=""""></a></div></div>","4","","1","","","4","2"
"","html-keyboard-response","447","1516310","0.0-12.0-10.0-3.0-0.0","1053","<div><div style=""""><a style=""white-space:pre-wrap;""> while a >= 12:
   a /= 3
   a *= 2</a><a style=""""></a></div></div>","8","","1","","","8","3"
"","html-keyboard-response","448","1517393","0.0-12.0-10.0-4.0-0.0","569","<div><div style=""""><a style=""white-space:pre-wrap;""> while a >= 12:
   a /= 3
   a *= 2</a><a style=""""></a></div></div>","backspace","","1","","","backspace",""
"","html-keyboard-response","449","1524547","0.0-12.0-11.0-0.0-0.0","6642","<div><div style=""""><a style=""white-space:pre-wrap;""> while a >= 3:
   a *= 2
   a -= 9</a><a style=""""></a></div></div>","16","","1","","","16","0"
"","html-keyboard-response","450","1525589","0.0-12.0-11.0-1.0-0.0","534","<div><div style=""""><a style=""white-space:pre-wrap;""> while a >= 3:
   a *= 2
   a -= 9</a><a style=""""></a></div></div>","7","","1","","","7","1"
"","html-keyboard-response","451","1526994","0.0-12.0-11.0-2.0-0.0","898","<div><div style=""""><a style=""white-space:pre-wrap;""> while a >= 3:
   a *= 2
   a -= 9</a><a style=""""></a></div></div>","14","","1","","","14","2"
"","html-keyboard-response","452","1533159","0.0-12.0-11.0-3.0-0.0","5657","<div><div style=""""><a style=""white-space:pre-wrap;""> while a >= 3:
   a *= 2
   a -= 9</a><a style=""""></a></div></div>","5","","1","","","5","3"
