"success","trial_type","trial_index","time_elapsed","internal_node_id","rt","stimulus","response","expected_response","correct","uid","text1","correct_response","loop_step"
"true","fullscreen","0","6855","0.0-0.0","","","","","","","","",""
"","html-keyboard-response","1","8439","0.0-1.0","1580","Please make sure that your keyboard is in English mode. Press 'A' to continue","a","","","","","",""
"","html-keyboard-response","2","10595","0.0-2.0-1.0","2153","<p style=""font-size: 25px;"">Please press space to start the next program<br>>>>>>></p>"," ","","","","","",""
"","html-keyboard-response","3","11536","0.0-2.0-2.0","939","<div><div style="" font-size:25px; color:green;""><a style=""white-space:pre-wrap;""> a = 16</a><a style=""""></a></div></div>","","null","","82","a = 16","",""
"","html-keyboard-response","4","14824","0.0-2.0-4.0-0.0-0.0","2776","<div><div style=""""><a style=""white-space:pre-wrap;""> for i in [1, 2]:
   a /= 2</a><a style=""""></a></div></div>","8","","1","","","8","0"
"","html-keyboard-response","5","15738","0.0-2.0-4.0-1.0-0.0","409","<div><div style=""""><a style=""white-space:pre-wrap;""> for i in [1, 2]:
   a /= 2</a><a style=""""></a></div></div>","4","","1","","","4","1"
"","html-keyboard-response","6","16631","0.0-2.0-4.0-2.0-0.0","388","<div><div style=""""><a style=""white-space:pre-wrap;""> for i in [1, 2]:
   a /= 2</a><a style=""""></a></div></div>","backspace","","1","","","backspace",""
"","html-keyboard-response","7","19421","0.0-2.0-5.0-0.0-0.0","2283","<div><div style=""""><a style=""white-space:pre-wrap;""> for i in [1, 2, 3]:
   a = round_up(a*1.5)</a><a style=""""></a></div></div>","6","","1","","","6","0"
"","html-keyboard-response","8","20763","0.0-2.0-5.0-1.0-0.0","837","<div><div style=""""><a style=""white-space:pre-wrap;""> for i in [1, 2, 3]:
   a = round_up(a*1.5)</a><a style=""""></a></div></div>","9","","1","","","9","1"
"","html-keyboard-response","9","24803","0.0-2.0-5.0-2.0-0.0","3533","<div><div style=""""><a style=""white-space:pre-wrap;""> for i in [1, 2, 3]:
   a = round_up(a*1.5)</a><a style=""""></a></div></div>","14","","1","","","14","2"
"","html-keyboard-response","10","25705","0.0-2.0-5.0-3.0-0.0","387","<div><div style=""""><a style=""white-space:pre-wrap;""> for i in [1, 2, 3]:
   a = round_up(a*1.5)</a><a style=""""></a></div></div>","backspace","","1","","","backspace",""
"","html-keyboard-response","11","28577","0.0-2.0-6.0-0.0-0.0","2362","<div><div style=""""><a style=""white-space:pre-wrap;""> while a >= 13:
   a += 5
   a -= 6</a><a style=""""></a></div></div>","19","","1","","","19","0"
"","html-keyboard-response","12","31826","0.0-2.0-6.0-1.0-0.0","2742","<div><div style=""""><a style=""white-space:pre-wrap;""> while a >= 13:
   a += 5
   a -= 6</a><a style=""""></a></div></div>","13","","1","","","13","1"
"","html-keyboard-response","13","36021","0.0-2.0-6.0-2.0-0.0","3692","<div><div style=""""><a style=""white-space:pre-wrap;""> while a >= 13:
   a += 5
   a -= 6</a><a style=""""></a></div></div>","18","","1","","","18","2"
"","html-keyboard-response","14","38348","0.0-2.0-6.0-3.0-0.0","1824","<div><div style=""""><a style=""white-space:pre-wrap;""> while a >= 13:
   a += 5
   a -= 6</a><a style=""""></a></div></div>","12","","1","","","12","3"
"","html-keyboard-response","15","39734","0.0-2.0-6.0-4.0-0.0","883","<div><div style=""""><a style=""white-space:pre-wrap;""> while a >= 13:
   a += 5
   a -= 6</a><a style=""""></a></div></div>","backspace","","1","","","backspace",""
"","html-keyboard-response","16","43556","0.0-2.0-7.0-0.0-0.0","3308","<div><div style=""""><a style=""white-space:pre-wrap;""> while a >= 6:
   a = average(a,4)</a><a style=""""></a></div></div>","8","","1","","","8","0"
"","html-keyboard-response","17","47494","0.0-2.0-7.0-1.0-0.0","3426","<div><div style=""""><a style=""white-space:pre-wrap;""> while a >= 6:
   a = average(a,4)</a><a style=""""></a></div></div>","6","","1","","","6","1"
"","html-keyboard-response","18","49288","0.0-2.0-7.0-2.0-0.0","1283","<div><div style=""""><a style=""white-space:pre-wrap;""> while a >= 6:
   a = average(a,4)</a><a style=""""></a></div></div>","5","","1","","","5","2"
"","html-keyboard-response","19","50179","0.0-2.0-7.0-3.0-0.0","374","<div><div style=""""><a style=""white-space:pre-wrap;""> while a >= 6:
   a = average(a,4)</a><a style=""""></a></div></div>","backspace","","1","","","backspace",""
"","html-keyboard-response","20","52587","0.0-2.0-8.0-0.0-0.0","1899","<div><div style=""""><a style=""white-space:pre-wrap;""> for i in [1, 2]:
   a *= 3
   a -= 11</a><a style=""""></a></div></div>","15","","1","","","15","0"
"","html-keyboard-response","21","53855","0.0-2.0-8.0-1.0-0.0","754","<div><div style=""""><a style=""white-space:pre-wrap;""> for i in [1, 2]:
   a *= 3
   a -= 11</a><a style=""""></a></div></div>","4","","1","","","4","1"
"","html-keyboard-response","22","56665","0.0-2.0-8.0-2.0-0.0","2307","<div><div style=""""><a style=""white-space:pre-wrap;""> for i in [1, 2]:
   a *= 3
   a -= 11</a><a style=""""></a></div></div>","12","","1","","","12","2"
"","html-keyboard-response","23","57826","0.0-2.0-8.0-3.0-0.0","649","<div><div style=""""><a style=""white-space:pre-wrap;""> for i in [1, 2]:
   a *= 3
   a -= 11</a><a style=""""></a></div></div>","1","","1","","","1","3"
"","html-keyboard-response","24","59569","0.0-2.0-8.0-4.0-0.0","1238","<div><div style=""""><a style=""white-space:pre-wrap;""> for i in [1, 2]:
   a *= 3
   a -= 11</a><a style=""""></a></div></div>","backspace","","1","","","backspace",""
"","html-keyboard-response","25","61397","0.0-2.0-9.0-0.0-0.0","1313","<div><div style=""""><a style=""white-space:pre-wrap;""> while a <= 7:
   a *= 6
   a /= 2</a><a style=""""></a></div></div>","6","","1","","","6","0"
"","html-keyboard-response","26","62725","0.0-2.0-9.0-1.0-0.0","825","<div><div style=""""><a style=""white-space:pre-wrap;""> while a <= 7:
   a *= 6
   a /= 2</a><a style=""""></a></div></div>","3","","1","","","3","1"
"","html-keyboard-response","27","69146","0.0-2.0-9.0-2.0-0.0","5906","<div><div style=""""><a style=""white-space:pre-wrap;""> while a <= 7:
   a *= 6
   a /= 2</a><a style=""""></a></div></div>","18","","1","","","18","2"
"","html-keyboard-response","28","70259","0.0-2.0-9.0-3.0-0.0","596","<div><div style=""""><a style=""white-space:pre-wrap;""> while a <= 7:
   a *= 6
   a /= 2</a><a style=""""></a></div></div>","9","","1","","","9","3"
"","html-keyboard-response","29","72614","0.0-2.0-9.0-4.0-0.0","1846","<div><div style=""""><a style=""white-space:pre-wrap;""> while a <= 7:
   a *= 6
   a /= 2</a><a style=""""></a></div></div>","backspace","","1","","","backspace",""
"","html-keyboard-response","30","75515","0.0-2.0-10.0-0.0-0.0","2395","<div><div style=""""><a style=""white-space:pre-wrap;""> while a >= 7:
   a -= 2</a><a style=""""></a></div></div>","7","","1","","","7","0"
"","html-keyboard-response","31","76696","0.0-2.0-10.0-1.0-0.0","677","<div><div style=""""><a style=""white-space:pre-wrap;""> while a >= 7:
   a -= 2</a><a style=""""></a></div></div>","5","","1","","","5","1"
"","html-keyboard-response","32","77440","0.0-2.0-10.0-2.0-0.0","239","<div><div style=""""><a style=""white-space:pre-wrap;""> while a >= 7:
   a -= 2</a><a style=""""></a></div></div>","backspace","","1","","","backspace",""
"","html-keyboard-response","33","80517","0.0-2.0-11.0-0.0-0.0","2561","<div><div style=""""><a style=""white-space:pre-wrap;""> for i in [1, 2]:
   a += 9
   a /= 2</a><a style=""""></a></div></div>","14","","1","","","14","0"
"","html-keyboard-response","34","82082","0.0-2.0-11.0-1.0-0.0","1057","<div><div style=""""><a style=""white-space:pre-wrap;""> for i in [1, 2]:
   a += 9
   a /= 2</a><a style=""""></a></div></div>","7","","1","","","7","1"
"","html-keyboard-response","35","84375","0.0-2.0-11.0-2.0-0.0","1791","<div><div style=""""><a style=""white-space:pre-wrap;""> for i in [1, 2]:
   a += 9
   a /= 2</a><a style=""""></a></div></div>","16","","1","","","16","2"
"","html-keyboard-response","36","85364","0.0-2.0-11.0-3.0-0.0","476","<div><div style=""""><a style=""white-space:pre-wrap;""> for i in [1, 2]:
   a += 9
   a /= 2</a><a style=""""></a></div></div>","8","","1","","","8","3"
"","html-keyboard-response","37","86651","0.0-2.0-11.0-4.0-0.0","784","<div><div style=""""><a style=""white-space:pre-wrap;""> for i in [1, 2]:
   a += 9
   a /= 2</a><a style=""""></a></div></div>","backspace","","1","","","backspace",""
"","html-keyboard-response","38","89373","0.0-3.0-1.0","2203","<p style=""font-size: 25px;"">Please press space to start the next program<br>>>>>>></p>"," ","","","","","",""
"","html-keyboard-response","39","90353","0.0-3.0-2.0","978","<div><div style="" font-size:25px; color:green;""><a style=""white-space:pre-wrap;""> a = 9</a><a style=""""></a></div></div>","","null","","100","a = 9","",""
"","html-keyboard-response","40","92865","0.0-3.0-4.0-0.0-0.0","2003","<div><div style=""""><a style=""white-space:pre-wrap;""> while a >= 2:
   a /= 3</a><a style=""""></a></div></div>","3","","1","","","3","0"
"","html-keyboard-response","41","95267","0.0-3.0-4.0-1.0-0.0","1889","<div><div style=""""><a style=""white-space:pre-wrap;""> while a >= 2:
   a /= 3</a><a style=""""></a></div></div>","1","","1","","","1","1"
"","html-keyboard-response","42","96126","0.0-3.0-4.0-2.0-0.0","352","<div><div style=""""><a style=""white-space:pre-wrap;""> while a >= 2:
   a /= 3</a><a style=""""></a></div></div>","backspace","","1","","","backspace",""
"","html-keyboard-response","43","98123","0.0-3.0-5.0-0.0-0.0","1481","<div><div style=""""><a style=""white-space:pre-wrap;""> while a <= 16:
   a += 6</a><a style=""""></a></div></div>","7","","1","","","7","0"
"","html-keyboard-response","44","100094","0.0-3.0-5.0-1.0-0.0","1464","<div><div style=""""><a style=""white-space:pre-wrap;""> while a <= 16:
   a += 6</a><a style=""""></a></div></div>","13","","1","","","13","1"
"","html-keyboard-response","45","102840","0.0-3.0-5.0-2.0-0.0","2235","<div><div style=""""><a style=""white-space:pre-wrap;""> while a <= 16:
   a += 6</a><a style=""""></a></div></div>","19","","1","","","19","2"
"","html-keyboard-response","46","103798","0.0-3.0-5.0-3.0-0.0","453","<div><div style=""""><a style=""white-space:pre-wrap;""> while a <= 16:
   a += 6</a><a style=""""></a></div></div>","backspace","","1","","","backspace",""
"","html-keyboard-response","47","106461","0.0-3.0-6.0-0.0-0.0","2155","<div><div style=""""><a style=""white-space:pre-wrap;""> for i in [1, 2]:
   a += 1
   a -= 8</a><a style=""""></a></div></div>","20","","1","","","20","0"
"","html-keyboard-response","48","107701","0.0-3.0-6.0-1.0-0.0","723","<div><div style=""""><a style=""white-space:pre-wrap;""> for i in [1, 2]:
   a += 1
   a -= 8</a><a style=""""></a></div></div>","12","","1","","","12","1"
"","html-keyboard-response","49","109852","0.0-3.0-6.0-2.0-0.0","1643","<div><div style=""""><a style=""white-space:pre-wrap;""> for i in [1, 2]:
   a += 1
   a -= 8</a><a style=""""></a></div></div>","13","","1","","","13","2"
"","html-keyboard-response","50","112680","0.0-3.0-6.0-3.0-0.0","2317","<div><div style=""""><a style=""white-space:pre-wrap;""> for i in [1, 2]:
   a += 1
   a -= 8</a><a style=""""></a></div></div>","5","","1","","","5","3"
"","html-keyboard-response","51","113504","0.0-3.0-6.0-4.0-0.0","318","<div><div style=""""><a style=""white-space:pre-wrap;""> for i in [1, 2]:
   a += 1
   a -= 8</a><a style=""""></a></div></div>","backspace","","1","","","backspace",""
"","html-keyboard-response","52","115939","0.0-3.0-7.0-0.0-0.0","1931","<div><div style=""""><a style=""white-space:pre-wrap;""> for i in [1, 2]:
   a *= 3
   a -= 9</a><a style=""""></a></div></div>","15","","1","","","15","0"
"","html-keyboard-response","53","117690","0.0-3.0-7.0-1.0-0.0","1244","<div><div style=""""><a style=""white-space:pre-wrap;""> for i in [1, 2]:
   a *= 3
   a -= 9</a><a style=""""></a></div></div>","9","","0","","","6","1"
"","html-keyboard-response","55","126266","0.0-3.0-7.0-2.0-0.0","4559","<div><div style=""""><a style=""white-space:pre-wrap;""> for i in [1, 2]:
   a *= 3
   a -= 9</a><a style=""""></a></div></div>","18","","1","","","18","2"
"","html-keyboard-response","56","127429","0.0-3.0-7.0-3.0-0.0","650","<div><div style=""""><a style=""white-space:pre-wrap;""> for i in [1, 2]:
   a *= 3
   a -= 9</a><a style=""""></a></div></div>","9","","1","","","9","3"
"","html-keyboard-response","57","128276","0.0-3.0-7.0-4.0-0.0","334","<div><div style=""""><a style=""white-space:pre-wrap;""> for i in [1, 2]:
   a *= 3
   a -= 9</a><a style=""""></a></div></div>","backspace","","1","","","backspace",""
"","html-keyboard-response","58","139543","0.0-3.0-8.0-0.0-0.0","10753","<div><div style=""""><a style=""white-space:pre-wrap;""> while a >= 3:
   a = average(a, 1)</a><a style=""""></a></div></div>","5","","1","","","5","0"
"","html-keyboard-response","59","142748","0.0-3.0-8.0-1.0-0.0","2700","<div><div style=""""><a style=""white-space:pre-wrap;""> while a >= 3:
   a = average(a, 1)</a><a style=""""></a></div></div>","3","","1","","","3","1"
"","html-keyboard-response","60","144400","0.0-3.0-8.0-2.0-0.0","1145","<div><div style=""""><a style=""white-space:pre-wrap;""> while a >= 3:
   a = average(a, 1)</a><a style=""""></a></div></div>","2","","1","","","2","2"
"","html-keyboard-response","61","145210","0.0-3.0-8.0-3.0-0.0","299","<div><div style=""""><a style=""white-space:pre-wrap;""> while a >= 3:
   a = average(a, 1)</a><a style=""""></a></div></div>","backspace","","1","","","backspace",""
"","html-keyboard-response","62","147082","0.0-3.0-9.0-0.0-0.0","1366","<div><div style=""""><a style=""white-space:pre-wrap;""> for i in [1, 2]:
   a -= 1
   a *= 5</a><a style=""""></a></div></div>","1","","1","","","1","0"
"","html-keyboard-response","63","148789","0.0-3.0-9.0-1.0-0.0","1194","<div><div style=""""><a style=""white-space:pre-wrap;""> for i in [1, 2]:
   a -= 1
   a *= 5</a><a style=""""></a></div></div>","5","","1","","","5","1"
"","html-keyboard-response","64","150868","0.0-3.0-9.0-2.0-0.0","1575","<div><div style=""""><a style=""white-space:pre-wrap;""> for i in [1, 2]:
   a -= 1
   a *= 5</a><a style=""""></a></div></div>","4","","1","","","4","2"
"","html-keyboard-response","65","154197","0.0-3.0-9.0-3.0-0.0","2817","<div><div style=""""><a style=""white-space:pre-wrap;""> for i in [1, 2]:
   a -= 1
   a *= 5</a><a style=""""></a></div></div>","20","","1","","","20","3"
"","html-keyboard-response","66","155074","0.0-3.0-9.0-4.0-0.0","364","<div><div style=""""><a style=""white-space:pre-wrap;""> for i in [1, 2]:
   a -= 1
   a *= 5</a><a style=""""></a></div></div>","backspace","","1","","","backspace",""
"","html-keyboard-response","67","157564","0.0-3.0-10.0-0.0-0.0","1988","<div><div style=""""><a style=""white-space:pre-wrap;""> for i in [1, 2, 3]:
   a -= 3</a><a style=""""></a></div></div>","17","","1","","","17","0"
"","html-keyboard-response","68","158972","0.0-3.0-10.0-1.0-0.0","896","<div><div style=""""><a style=""white-space:pre-wrap;""> for i in [1, 2, 3]:
   a -= 3</a><a style=""""></a></div></div>","14","","1","","","14","1"
"","html-keyboard-response","69","160072","0.0-3.0-10.0-2.0-0.0","591","<div><div style=""""><a style=""white-space:pre-wrap;""> for i in [1, 2, 3]:
   a -= 3</a><a style=""""></a></div></div>","11","","1","","","11","2"
"","html-keyboard-response","70","161030","0.0-3.0-10.0-3.0-0.0","447","<div><div style=""""><a style=""white-space:pre-wrap;""> for i in [1, 2, 3]:
   a -= 3</a><a style=""""></a></div></div>","backspace","","1","","","backspace",""
"","html-keyboard-response","71","164624","0.0-3.0-11.0-0.0-0.0","3088","<div><div style=""""><a style=""white-space:pre-wrap;""> while a >= 5:
   a -= 5</a><a style=""""></a></div></div>","6","","1","","","6","0"
"","html-keyboard-response","72","166541","0.0-3.0-11.0-1.0-0.0","1403","<div><div style=""""><a style=""white-space:pre-wrap;""> while a >= 5:
   a -= 5</a><a style=""""></a></div></div>","1","","1","","","1","1"
"","html-keyboard-response","73","168659","0.0-3.0-11.0-2.0-0.0","1606","<div><div style=""""><a style=""white-space:pre-wrap;""> while a >= 5:
   a -= 5</a><a style=""""></a></div></div>","backspace","","1","","","backspace",""
"","html-keyboard-response","74","170165","0.0-4.0-1.0","999","<p style=""font-size: 25px;"">Please press space to start the next program<br>>>>>>></p>"," ","","","","","",""
"","html-keyboard-response","75","171494","0.0-4.0-2.0","1328","<div><div style="" font-size:25px; color:green;""><a style=""white-space:pre-wrap;""> a = 8</a><a style=""""></a></div></div>","","null","","46","a = 8","",""
"","html-keyboard-response","76","173554","0.0-4.0-4.0-0.0-0.0","1547","<div><div style=""""><a style=""white-space:pre-wrap;""> for i in [1, 2, 3]:
   a -= 2
   a += 6</a><a style=""""></a></div></div>","6","","1","","","6","0"
"","html-keyboard-response","77","175655","0.0-4.0-4.0-1.0-0.0","1586","<div><div style=""""><a style=""white-space:pre-wrap;""> for i in [1, 2, 3]:
   a -= 2
   a += 6</a><a style=""""></a></div></div>","12","","1","","","12","1"
"","html-keyboard-response","78","177905","0.0-4.0-4.0-2.0-0.0","1748","<div><div style=""""><a style=""white-space:pre-wrap;""> for i in [1, 2, 3]:
   a -= 2
   a += 6</a><a style=""""></a></div></div>","10","","1","","","10","2"
"","html-keyboard-response","79","181047","0.0-4.0-4.0-3.0-0.0","2631","<div><div style=""""><a style=""white-space:pre-wrap;""> for i in [1, 2, 3]:
   a -= 2
   a += 6</a><a style=""""></a></div></div>","16","","1","","","16","3"
"","html-keyboard-response","80","183576","0.0-4.0-4.0-4.0-0.0","2020","<div><div style=""""><a style=""white-space:pre-wrap;""> for i in [1, 2, 3]:
   a -= 2
   a += 6</a><a style=""""></a></div></div>","14","","1","","","14","4"
"","html-keyboard-response","81","184921","0.0-4.0-4.0-5.0-0.0","842","<div><div style=""""><a style=""white-space:pre-wrap;""> for i in [1, 2, 3]:
   a -= 2
   a += 6</a><a style=""""></a></div></div>","20","","1","","","20","5"
"","html-keyboard-response","82","185837","0.0-4.0-4.0-6.0-0.0","414","<div><div style=""""><a style=""white-space:pre-wrap;""> for i in [1, 2, 3]:
   a -= 2
   a += 6</a><a style=""""></a></div></div>","backspace","","1","","","backspace",""
"","html-keyboard-response","83","190639","0.0-4.0-5.0-0.0-0.0","4287","<div><div style=""""><a style=""white-space:pre-wrap;""> for i in [1, 2]:
   a /= 2</a><a style=""""></a></div></div>","7","","0","","","10","0"
"","html-keyboard-response","85","196019","0.0-4.0-5.0-1.0-0.0","1350","<div><div style=""""><a style=""white-space:pre-wrap;""> for i in [1, 2]:
   a /= 2</a><a style=""""></a></div></div>","5","","1","","","5","1"
"","html-keyboard-response","86","196942","0.0-4.0-5.0-2.0-0.0","415","<div><div style=""""><a style=""white-space:pre-wrap;""> for i in [1, 2]:
   a /= 2</a><a style=""""></a></div></div>","backspace","","1","","","backspace",""
"","html-keyboard-response","87","204276","0.0-4.0-6.0-0.0-0.0","6818","<div><div style=""""><a style=""white-space:pre-wrap;""> while a <= 15:
   a = round_up(a*1.5)</a><a style=""""></a></div></div>","8","","1","","","8","0"
"","html-keyboard-response","88","207311","0.0-4.0-6.0-1.0-0.0","2522","<div><div style=""""><a style=""white-space:pre-wrap;""> while a <= 15:
   a = round_up(a*1.5)</a><a style=""""></a></div></div>","12","","1","","","12","1"
"","html-keyboard-response","89","211167","0.0-4.0-6.0-2.0-0.0","3353","<div><div style=""""><a style=""white-space:pre-wrap;""> while a <= 15:
   a = round_up(a*1.5)</a><a style=""""></a></div></div>","18","","1","","","18","2"
"","html-keyboard-response","90","211973","0.0-4.0-6.0-3.0-0.0","292","<div><div style=""""><a style=""white-space:pre-wrap;""> while a <= 15:
   a = round_up(a*1.5)</a><a style=""""></a></div></div>","backspace","","1","","","backspace",""
"","html-keyboard-response","91","215691","0.0-4.0-7.0-0.0-0.0","3205","<div><div style=""""><a style=""white-space:pre-wrap;""> for i in [1, 2, 3, 4]:
   a = average(a,2)</a><a style=""""></a></div></div>","10","","1","","","10","0"
"","html-keyboard-response","92","217624","0.0-4.0-7.0-1.0-0.0","1428","<div><div style=""""><a style=""white-space:pre-wrap;""> for i in [1, 2, 3, 4]:
   a = average(a,2)</a><a style=""""></a></div></div>","6","","1","","","6","1"
"","html-keyboard-response","93","220669","0.0-4.0-7.0-2.0-0.0","2530","<div><div style=""""><a style=""white-space:pre-wrap;""> for i in [1, 2, 3, 4]:
   a = average(a,2)</a><a style=""""></a></div></div>","4","","1","","","4","2"
"","html-keyboard-response","94","224045","0.0-4.0-7.0-3.0-0.0","2863","<div><div style=""""><a style=""white-space:pre-wrap;""> for i in [1, 2, 3, 4]:
   a = average(a,2)</a><a style=""""></a></div></div>","3","","1","","","3","3"
"","html-keyboard-response","95","224809","0.0-4.0-7.0-4.0-0.0","260","<div><div style=""""><a style=""white-space:pre-wrap;""> for i in [1, 2, 3, 4]:
   a = average(a,2)</a><a style=""""></a></div></div>","backspace","","1","","","backspace",""
"","html-keyboard-response","96","227958","0.0-4.0-8.0-0.0-0.0","2635","<div><div style=""""><a style=""white-space:pre-wrap;""> for i in [1, 2]:
   a += 7
   a /= 2</a><a style=""""></a></div></div>","10","","1","","","10","0"
"","html-keyboard-response","97","229060","0.0-4.0-8.0-1.0-0.0","598","<div><div style=""""><a style=""white-space:pre-wrap;""> for i in [1, 2]:
   a += 7
   a /= 2</a><a style=""""></a></div></div>","5","","1","","","5","1"
"","html-keyboard-response","98","232186","0.0-4.0-8.0-2.0-0.0","2620","<div><div style=""""><a style=""white-space:pre-wrap;""> for i in [1, 2]:
   a += 7
   a /= 2</a><a style=""""></a></div></div>","12","","1","","","12","2"
"","html-keyboard-response","99","232926","0.0-4.0-8.0-3.0-0.0","232","<div><div style=""""><a style=""white-space:pre-wrap;""> for i in [1, 2]:
   a += 7
   a /= 2</a><a style=""""></a></div></div>","6","","1","","","6","3"
"","html-keyboard-response","100","234345","0.0-4.0-8.0-4.0-0.0","911","<div><div style=""""><a style=""white-space:pre-wrap;""> for i in [1, 2]:
   a += 7
   a /= 2</a><a style=""""></a></div></div>","backspace","","1","","","backspace",""
"","html-keyboard-response","101","236621","0.0-4.0-9.0-0.0-0.0","1770","<div><div style=""""><a style=""white-space:pre-wrap;""> while a <= 15:
   a += 3</a><a style=""""></a></div></div>","9","","1","","","9","0"
"","html-keyboard-response","102","237959","0.0-4.0-9.0-1.0-0.0","829","<div><div style=""""><a style=""white-space:pre-wrap;""> while a <= 15:
   a += 3</a><a style=""""></a></div></div>","12","","1","","","12","1"
"","html-keyboard-response","103","239007","0.0-4.0-9.0-2.0-0.0","532","<div><div style=""""><a style=""white-space:pre-wrap;""> while a <= 15:
   a += 3</a><a style=""""></a></div></div>","15","","1","","","15","2"
"","html-keyboard-response","104","240656","0.0-4.0-9.0-3.0-0.0","1138","<div><div style=""""><a style=""white-space:pre-wrap;""> while a <= 15:
   a += 3</a><a style=""""></a></div></div>","18","","1","","","18","3"
"","html-keyboard-response","105","241765","0.0-4.0-9.0-4.0-0.0","608","<div><div style=""""><a style=""white-space:pre-wrap;""> while a <= 15:
   a += 3</a><a style=""""></a></div></div>","backspace","","1","","","backspace",""
"","html-keyboard-response","106","243943","0.0-4.0-10.0-0.0-0.0","1671","<div><div style=""""><a style=""white-space:pre-wrap;""> for i in [1, 2]:
   a /= 3
   a *= 2</a><a style=""""></a></div></div>","6","","1","","","6","0"
"","html-keyboard-response","107","245356","0.0-4.0-10.0-1.0-0.0","901","<div><div style=""""><a style=""white-space:pre-wrap;""> for i in [1, 2]:
   a /= 3
   a *= 2</a><a style=""""></a></div></div>","12","","1","","","12","1"
"","html-keyboard-response","108","248858","0.0-4.0-10.0-2.0-0.0","2993","<div><div style=""""><a style=""white-space:pre-wrap;""> for i in [1, 2]:
   a /= 3
   a *= 2</a><a style=""""></a></div></div>","4","","1","","","4","2"
"","html-keyboard-response","109","250135","0.0-4.0-10.0-3.0-0.0","774","<div><div style=""""><a style=""white-space:pre-wrap;""> for i in [1, 2]:
   a /= 3
   a *= 2</a><a style=""""></a></div></div>","8","","1","","","8","3"
"","html-keyboard-response","110","250821","0.0-4.0-10.0-4.0-0.0","171","<div><div style=""""><a style=""white-space:pre-wrap;""> for i in [1, 2]:
   a /= 3
   a *= 2</a><a style=""""></a></div></div>","backspace","","1","","","backspace",""
"","html-keyboard-response","111","255525","0.0-4.0-11.0-0.0-0.0","4194","<div><div style=""""><a style=""white-space:pre-wrap;""> for i in [1, 2, 3]:
   a *= 2
   a -= 9</a><a style=""""></a></div></div>","16","","1","","","16","0"
"","html-keyboard-response","112","257744","0.0-4.0-11.0-1.0-0.0","1705","<div><div style=""""><a style=""white-space:pre-wrap;""> for i in [1, 2, 3]:
   a *= 2
   a -= 9</a><a style=""""></a></div></div>","7","","1","","","7","1"
"","html-keyboard-response","113","259244","0.0-4.0-11.0-2.0-0.0","992","<div><div style=""""><a style=""white-space:pre-wrap;""> for i in [1, 2, 3]:
   a *= 2
   a -= 9</a><a style=""""></a></div></div>","14","","1","","","14","2"
"","html-keyboard-response","114","262219","0.0-4.0-11.0-3.0-0.0","2464","<div><div style=""""><a style=""white-space:pre-wrap;""> for i in [1, 2, 3]:
   a *= 2
   a -= 9</a><a style=""""></a></div></div>","5","","1","","","5","3"
"","html-keyboard-response","115","264179","0.0-4.0-11.0-4.0-0.0","1453","<div><div style=""""><a style=""white-space:pre-wrap;""> for i in [1, 2, 3]:
   a *= 2
   a -= 9</a><a style=""""></a></div></div>","10","","1","","","10","4"
"","html-keyboard-response","116","265625","0.0-4.0-11.0-5.0-0.0","935","<div><div style=""""><a style=""white-space:pre-wrap;""> for i in [1, 2, 3]:
   a *= 2
   a -= 9</a><a style=""""></a></div></div>","11","","0","","","1","5"
"","html-keyboard-response","118","270220","0.0-4.0-11.0-6.0-0.0","580","<div><div style=""""><a style=""white-space:pre-wrap;""> for i in [1, 2, 3]:
   a *= 2
   a -= 9</a><a style=""""></a></div></div>","backspace","","1","","","backspace",""
"","html-keyboard-response","119","271972","0.0-5.0-1.0","1245","<p style=""font-size: 25px;"">Please press space to start the next program<br>>>>>>></p>"," ","","","","","",""
"","html-keyboard-response","120","273297","0.0-5.0-2.0","1323","<div><div style="" font-size:25px; color:green;""><a style=""white-space:pre-wrap;""> a = 18</a><a style=""""></a></div></div>","","null","","28","a = 18","",""
"","html-keyboard-response","121","275248","0.0-5.0-4.0-0.0-0.0","1446","<div><div style=""""><a style=""white-space:pre-wrap;""> while a >= 10:
   a /= 3
   a *= 2</a><a style=""""></a></div></div>","6","","1","","","6","0"
"","html-keyboard-response","122","276527","0.0-5.0-4.0-1.0-0.0","775","<div><div style=""""><a style=""white-space:pre-wrap;""> while a >= 10:
   a /= 3
   a *= 2</a><a style=""""></a></div></div>","12","","1","","","12","1"
"","html-keyboard-response","123","278747","0.0-5.0-4.0-2.0-0.0","1713","<div><div style=""""><a style=""white-space:pre-wrap;""> while a >= 10:
   a /= 3
   a *= 2</a><a style=""""></a></div></div>","4","","1","","","4","2"
"","html-keyboard-response","124","280599","0.0-5.0-4.0-3.0-0.0","1336","<div><div style=""""><a style=""white-space:pre-wrap;""> while a >= 10:
   a /= 3
   a *= 2</a><a style=""""></a></div></div>","8","","1","","","8","3"
"","html-keyboard-response","125","290849","0.0-5.0-4.0-4.0-0.0","9744","<div><div style=""""><a style=""white-space:pre-wrap;""> while a >= 10:
   a /= 3
   a *= 2</a><a style=""""></a></div></div>","backspace","","1","","","backspace",""
"","html-keyboard-response","126","293112","0.0-5.0-5.0-0.0-0.0","1747","<div><div style=""""><a style=""white-space:pre-wrap;""> for i in [1, 2, 3]:
   a /= 2</a><a style=""""></a></div></div>","4","","1","","","4","0"
"","html-keyboard-response","127","295066","0.0-5.0-5.0-1.0-0.0","1440","<div><div style=""""><a style=""white-space:pre-wrap;""> for i in [1, 2, 3]:
   a /= 2</a><a style=""""></a></div></div>","2","","1","","","2","1"
"","html-keyboard-response","128","295734","0.0-5.0-5.0-2.0-0.0","163","<div><div style=""""><a style=""white-space:pre-wrap;""> for i in [1, 2, 3]:
   a /= 2</a><a style=""""></a></div></div>","1","","1","","","1","2"
"","html-keyboard-response","129","296531","0.0-5.0-5.0-3.0-0.0","284","<div><div style=""""><a style=""white-space:pre-wrap;""> for i in [1, 2, 3]:
   a /= 2</a><a style=""""></a></div></div>","backspace","","1","","","backspace",""
"","html-keyboard-response","130","300002","0.0-5.0-6.0-0.0-0.0","2967","<div><div style=""""><a style=""white-space:pre-wrap;""> for i in [1, 2, 3, 4]:
   a += 2</a><a style=""""></a></div></div>","3","","1","","","3","0"
"","html-keyboard-response","131","301411","0.0-5.0-6.0-1.0-0.0","905","<div><div style=""""><a style=""white-space:pre-wrap;""> for i in [1, 2, 3, 4]:
   a += 2</a><a style=""""></a></div></div>","5","","1","","","5","1"
"","html-keyboard-response","132","302889","0.0-5.0-6.0-2.0-0.0","965","<div><div style=""""><a style=""white-space:pre-wrap;""> for i in [1, 2, 3, 4]:
   a += 2</a><a style=""""></a></div></div>","7","","1","","","7","2"
"","html-keyboard-response","133","304334","0.0-5.0-6.0-3.0-0.0","938","<div><div style=""""><a style=""white-space:pre-wrap;""> for i in [1, 2, 3, 4]:
   a += 2</a><a style=""""></a></div></div>","9","","1","","","9","3"
"","html-keyboard-response","134","305346","0.0-5.0-6.0-4.0-0.0","510","<div><div style=""""><a style=""white-space:pre-wrap;""> for i in [1, 2, 3, 4]:
   a += 2</a><a style=""""></a></div></div>","backspace","","1","","","backspace",""
"","html-keyboard-response","135","307980","0.0-5.0-7.0-0.0-0.0","2127","<div><div style=""""><a style=""white-space:pre-wrap;""> for i in [1, 2]:
   a += 9
   a /= 3</a><a style=""""></a></div></div>","18","","1","","","18","0"
"","html-keyboard-response","136","309041","0.0-5.0-7.0-1.0-0.0","549","<div><div style=""""><a style=""white-space:pre-wrap;""> for i in [1, 2]:
   a += 9
   a /= 3</a><a style=""""></a></div></div>","6","","1","","","6","1"
"","html-keyboard-response","137","311074","0.0-5.0-7.0-2.0-0.0","1525","<div><div style=""""><a style=""white-space:pre-wrap;""> for i in [1, 2]:
   a += 9
   a /= 3</a><a style=""""></a></div></div>","15","","1","","","15","2"
"","html-keyboard-response","138","312951","0.0-5.0-7.0-3.0-0.0","1368","<div><div style=""""><a style=""white-space:pre-wrap;""> for i in [1, 2]:
   a += 9
   a /= 3</a><a style=""""></a></div></div>","5","","1","","","5","3"
"","html-keyboard-response","139","313629","0.0-5.0-7.0-4.0-0.0","170","<div><div style=""""><a style=""white-space:pre-wrap;""> for i in [1, 2]:
   a += 9
   a /= 3</a><a style=""""></a></div></div>","backspace","","1","","","backspace",""
"","html-keyboard-response","140","326272","0.0-5.0-8.0-0.0-0.0","12135","<div><div style=""""><a style=""white-space:pre-wrap;""> for i in [1, 2, 3]:
   a = round_down(a*1.5)</a><a style=""""></a></div></div>","7","","1","","","7","0"
"","html-keyboard-response","141","331977","0.0-5.0-8.0-1.0-0.0","5191","<div><div style=""""><a style=""white-space:pre-wrap;""> for i in [1, 2, 3]:
   a = round_down(a*1.5)</a><a style=""""></a></div></div>","10","","1","","","10","1"
"","html-keyboard-response","142","333430","0.0-5.0-8.0-2.0-0.0","948","<div><div style=""""><a style=""white-space:pre-wrap;""> for i in [1, 2, 3]:
   a = round_down(a*1.5)</a><a style=""""></a></div></div>","15","","1","","","15","2"
"","html-keyboard-response","143","334197","0.0-5.0-8.0-3.0-0.0","251","<div><div style=""""><a style=""white-space:pre-wrap;""> for i in [1, 2, 3]:
   a = round_down(a*1.5)</a><a style=""""></a></div></div>","backspace","","1","","","backspace",""
"","html-keyboard-response","144","337015","0.0-5.0-9.0-0.0-0.0","2308","<div><div style=""""><a style=""white-space:pre-wrap;""> while a >= 8:
   a = average(a,3)</a><a style=""""></a></div></div>","9","","1","","","9","0"
"","html-keyboard-response","145","340760","0.0-5.0-9.0-1.0-0.0","3232","<div><div style=""""><a style=""white-space:pre-wrap;""> while a >= 8:
   a = average(a,3)</a><a style=""""></a></div></div>","6","","1","","","6","1"
"","html-keyboard-response","146","344137","0.0-5.0-9.0-2.0-0.0","2871","<div><div style=""""><a style=""white-space:pre-wrap;""> while a >= 8:
   a = average(a,3)</a><a style=""""></a></div></div>","backspace","","1","","","backspace",""
"","html-keyboard-response","147","346461","0.0-5.0-10.0-0.0-0.0","1813","<div><div style=""""><a style=""white-space:pre-wrap;""> while a <= 11:
   a *= 2
   a -= 5</a><a style=""""></a></div></div>","12","","1","","","12","0"
"","html-keyboard-response","148","348710","0.0-5.0-10.0-1.0-0.0","1737","<div><div style=""""><a style=""white-space:pre-wrap;""> while a <= 11:
   a *= 2
   a -= 5</a><a style=""""></a></div></div>","7","","1","","","7","1"
"","html-keyboard-response","149","350410","0.0-5.0-10.0-2.0-0.0","1184","<div><div style=""""><a style=""white-space:pre-wrap;""> while a <= 11:
   a *= 2
   a -= 5</a><a style=""""></a></div></div>","14","","1","","","14","2"
"","html-keyboard-response","150","357852","0.0-5.0-10.0-3.0-0.0","6937","<div><div style=""""><a style=""white-space:pre-wrap;""> while a <= 11:
   a *= 2
   a -= 5</a><a style=""""></a></div></div>","9","","1","","","9","3"
"","html-keyboard-response","151","361266","0.0-5.0-10.0-4.0-0.0","2909","<div><div style=""""><a style=""white-space:pre-wrap;""> while a <= 11:
   a *= 2
   a -= 5</a><a style=""""></a></div></div>","18","","1","","","18","4"
"","html-keyboard-response","152","362022","0.0-5.0-10.0-5.0-0.0","238","<div><div style=""""><a style=""white-space:pre-wrap;""> while a <= 11:
   a *= 2
   a -= 5</a><a style=""""></a></div></div>","13","","1","","","13","5"
"","html-keyboard-response","153","363378","0.0-5.0-10.0-6.0-0.0","854","<div><div style=""""><a style=""white-space:pre-wrap;""> while a <= 11:
   a *= 2
   a -= 5</a><a style=""""></a></div></div>","backspace","","1","","","backspace",""
"","html-keyboard-response","154","367147","0.0-5.0-11.0-0.0-0.0","3255","<div><div style=""""><a style=""white-space:pre-wrap;""> for i in [1, 2, 3]:
   a += 4
   a -= 7</a><a style=""""></a></div></div>","17","","1","","","17","0"
"","html-keyboard-response","155","367917","0.0-5.0-11.0-1.0-0.0","265","<div><div style=""""><a style=""white-space:pre-wrap;""> for i in [1, 2, 3]:
   a += 4
   a -= 7</a><a style=""""></a></div></div>","10","","1","","","10","1"
"","html-keyboard-response","156","370314","0.0-5.0-11.0-2.0-0.0","1886","<div><div style=""""><a style=""white-space:pre-wrap;""> for i in [1, 2, 3]:
   a += 4
   a -= 7</a><a style=""""></a></div></div>","14","","1","","","14","2"
"","html-keyboard-response","157","371196","0.0-5.0-11.0-3.0-0.0","371","<div><div style=""""><a style=""white-space:pre-wrap;""> for i in [1, 2, 3]:
   a += 4
   a -= 7</a><a style=""""></a></div></div>","7","","1","","","7","3"
"","html-keyboard-response","158","375093","0.0-5.0-11.0-4.0-0.0","3387","<div><div style=""""><a style=""white-space:pre-wrap;""> for i in [1, 2, 3]:
   a += 4
   a -= 7</a><a style=""""></a></div></div>","11","","1","","","11","4"
"","html-keyboard-response","159","376652","0.0-5.0-11.0-5.0-0.0","1053","<div><div style=""""><a style=""white-space:pre-wrap;""> for i in [1, 2, 3]:
   a += 4
   a -= 7</a><a style=""""></a></div></div>","4","","1","","","4","5"
"","html-keyboard-response","160","377518","0.0-5.0-11.0-6.0-0.0","355","<div><div style=""""><a style=""white-space:pre-wrap;""> for i in [1, 2, 3]:
   a += 4
   a -= 7</a><a style=""""></a></div></div>","backspace","","1","","","backspace",""
"","html-keyboard-response","161","451483","0.0-6.0-0.0-0.0","73453","<p style=""position:absolute; top:30%; font-size:25px; color:green;"" >Take a short break now</p>"," ","","","","","",""
"","html-keyboard-response","162","457770","0.0-6.0-1.0","6285","<p style=""font-size: 25px;"">Please press space to start the next program<br>>>>>>></p>"," ","","","","","",""
"","html-keyboard-response","163","458739","0.0-6.0-2.0","968","<div><div style="" font-size:25px; color:green;""><a style=""white-space:pre-wrap;""> a = 7</a><a style=""""></a></div></div>","","null","","10","a = 7","",""
"","html-keyboard-response","164","461072","0.0-6.0-4.0-0.0-0.0","1829","<div><div style=""""><a style=""white-space:pre-wrap;""> for i in [1, 2]:
   a *= 2
   a -= 4</a><a style=""""></a></div></div>","14","","1","","","14","0"
"","html-keyboard-response","165","462030","0.0-6.0-4.0-1.0-0.0","443","<div><div style=""""><a style=""white-space:pre-wrap;""> for i in [1, 2]:
   a *= 2
   a -= 4</a><a style=""""></a></div></div>","10","","1","","","10","1"
"","html-keyboard-response","166","463869","0.0-6.0-4.0-2.0-0.0","1322","<div><div style=""""><a style=""white-space:pre-wrap;""> for i in [1, 2]:
   a *= 2
   a -= 4</a><a style=""""></a></div></div>","20","","1","","","20","2"
"","html-keyboard-response","167","464621","0.0-6.0-4.0-3.0-0.0","237","<div><div style=""""><a style=""white-space:pre-wrap;""> for i in [1, 2]:
   a *= 2
   a -= 4</a><a style=""""></a></div></div>","16","","1","","","16","3"
"","html-keyboard-response","168","465598","0.0-6.0-4.0-4.0-0.0","471","<div><div style=""""><a style=""white-space:pre-wrap;""> for i in [1, 2]:
   a *= 2
   a -= 4</a><a style=""""></a></div></div>","backspace","","1","","","backspace",""
"","html-keyboard-response","169","468393","0.0-6.0-5.0-0.0-0.0","2285","<div><div style=""""><a style=""white-space:pre-wrap;""> while a >= 3:
   a /= 4
   a *= 2</a><a style=""""></a></div></div>","4","","1","","","4","0"
"","html-keyboard-response","170","470169","0.0-6.0-5.0-1.0-0.0","1271","<div><div style=""""><a style=""white-space:pre-wrap;""> while a >= 3:
   a /= 4
   a *= 2</a><a style=""""></a></div></div>","8","","1","","","8","1"
"","html-keyboard-response","171","471556","0.0-6.0-5.0-2.0-0.0","875","<div><div style=""""><a style=""white-space:pre-wrap;""> while a >= 3:
   a /= 4
   a *= 2</a><a style=""""></a></div></div>","2","","1","","","2","2"
"","html-keyboard-response","172","472918","0.0-6.0-5.0-3.0-0.0","845","<div><div style=""""><a style=""white-space:pre-wrap;""> while a >= 3:
   a /= 4
   a *= 2</a><a style=""""></a></div></div>","4","","1","","","4","3"
"","html-keyboard-response","173","473896","0.0-6.0-5.0-4.0-0.0","464","<div><div style=""""><a style=""white-space:pre-wrap;""> while a >= 3:
   a /= 4
   a *= 2</a><a style=""""></a></div></div>","1","","1","","","1","4"
"","html-keyboard-response","174","474693","0.0-6.0-5.0-5.0-0.0","280","<div><div style=""""><a style=""white-space:pre-wrap;""> while a >= 3:
   a /= 4
   a *= 2</a><a style=""""></a></div></div>","2","","1","","","2","5"
"","html-keyboard-response","175","475976","0.0-6.0-5.0-6.0-0.0","775","<div><div style=""""><a style=""white-space:pre-wrap;""> while a >= 3:
   a /= 4
   a *= 2</a><a style=""""></a></div></div>","backspace","","1","","","backspace",""
"","html-keyboard-response","176","478698","0.0-6.0-6.0-0.0-0.0","2217","<div><div style=""""><a style=""white-space:pre-wrap;""> while a <= 6:
   a = round_up(a*2.5)</a><a style=""""></a></div></div>","5","","1","","","5","0"
"","html-keyboard-response","177","482295","0.0-6.0-6.0-1.0-0.0","3090","<div><div style=""""><a style=""white-space:pre-wrap;""> while a <= 6:
   a = round_up(a*2.5)</a><a style=""""></a></div></div>","13","","1","","","13","1"
"","html-keyboard-response","178","485177","0.0-6.0-6.0-2.0-0.0","2370","<div><div style=""""><a style=""white-space:pre-wrap;""> while a <= 6:
   a = round_up(a*2.5)</a><a style=""""></a></div></div>","backspace","","1","","","backspace",""
"","html-keyboard-response","179","487951","0.0-6.0-7.0-0.0-0.0","2257","<div><div style=""""><a style=""white-space:pre-wrap;""> while a >= 7:
   a = average(a,5)</a><a style=""""></a></div></div>","9","","1","","","9","0"
"","html-keyboard-response","180","491782","0.0-6.0-7.0-1.0-0.0","3322","<div><div style=""""><a style=""white-space:pre-wrap;""> while a >= 7:
   a = average(a,5)</a><a style=""""></a></div></div>","7","","1","","","7","1"
"","html-keyboard-response","181","494307","0.0-6.0-7.0-2.0-0.0","2019","<div><div style=""""><a style=""white-space:pre-wrap;""> while a >= 7:
   a = average(a,5)</a><a style=""""></a></div></div>","6","","1","","","6","2"
"","html-keyboard-response","182","495111","0.0-6.0-7.0-3.0-0.0","298","<div><div style=""""><a style=""white-space:pre-wrap;""> while a >= 7:
   a = average(a,5)</a><a style=""""></a></div></div>","backspace","","1","","","backspace",""
"","html-keyboard-response","183","499087","0.0-6.0-8.0-0.0-0.0","3462","<div><div style=""""><a style=""white-space:pre-wrap;""> while a >= 4:
   a += 2
   a /= 2</a><a style=""""></a></div></div>","8","","1","","","8","0"
"","html-keyboard-response","184","499690","0.0-6.0-8.0-1.0-0.0","88","<div><div style=""""><a style=""white-space:pre-wrap;""> while a >= 4:
   a += 2
   a /= 2</a><a style=""""></a></div></div>","4","","1","","","4","1"
"","html-keyboard-response","185","503648","0.0-6.0-8.0-2.0-0.0","3448","<div><div style=""""><a style=""white-space:pre-wrap;""> while a >= 4:
   a += 2
   a /= 2</a><a style=""""></a></div></div>","6","","1","","","6","2"
"","html-keyboard-response","186","504574","0.0-6.0-8.0-3.0-0.0","414","<div><div style=""""><a style=""white-space:pre-wrap;""> while a >= 4:
   a += 2
   a /= 2</a><a style=""""></a></div></div>","3","","1","","","3","3"
"","html-keyboard-response","187","505244","0.0-6.0-8.0-4.0-0.0","165","<div><div style=""""><a style=""white-space:pre-wrap;""> while a >= 4:
   a += 2
   a /= 2</a><a style=""""></a></div></div>","backspace","","1","","","backspace",""
"","html-keyboard-response","188","507648","0.0-6.0-9.0-0.0-0.0","1891","<div><div style=""""><a style=""white-space:pre-wrap;""> for i in [1, 2]:
   a *= 2</a><a style=""""></a></div></div>","6","","1","","","6","0"
"","html-keyboard-response","189","509197","0.0-6.0-9.0-1.0-0.0","1037","<div><div style=""""><a style=""white-space:pre-wrap;""> for i in [1, 2]:
   a *= 2</a><a style=""""></a></div></div>","12","","1","","","12","1"
"","html-keyboard-response","190","510143","0.0-6.0-9.0-2.0-0.0","438","<div><div style=""""><a style=""white-space:pre-wrap;""> for i in [1, 2]:
   a *= 2</a><a style=""""></a></div></div>","backspace","","1","","","backspace",""
"","html-keyboard-response","191","513225","0.0-6.0-10.0-0.0-0.0","2569","<div><div style=""""><a style=""white-space:pre-wrap;""> for i in [1, 2]:
   a += 6
   a -= 4</a><a style=""""></a></div></div>","18","","1","","","18","0"
"","html-keyboard-response","192","514085","0.0-6.0-10.0-1.0-0.0","348","<div><div style=""""><a style=""white-space:pre-wrap;""> for i in [1, 2]:
   a += 6
   a -= 4</a><a style=""""></a></div></div>","14","","1","","","14","1"
"","html-keyboard-response","193","515722","0.0-6.0-10.0-2.0-0.0","1128","<div><div style=""""><a style=""white-space:pre-wrap;""> for i in [1, 2]:
   a += 6
   a -= 4</a><a style=""""></a></div></div>","20","","1","","","20","2"
"","html-keyboard-response","194","516936","0.0-6.0-10.0-3.0-0.0","709","<div><div style=""""><a style=""white-space:pre-wrap;""> for i in [1, 2]:
   a += 6
   a -= 4</a><a style=""""></a></div></div>","16","","1","","","16","3"
"","html-keyboard-response","195","518579","0.0-6.0-10.0-4.0-0.0","1137","<div><div style=""""><a style=""white-space:pre-wrap;""> for i in [1, 2]:
   a += 6
   a -= 4</a><a style=""""></a></div></div>","backspace","","1","","","backspace",""
"","html-keyboard-response","196","523915","0.0-6.0-11.0-0.0-0.0","4830","<div><div style=""""><a style=""white-space:pre-wrap;""> while a >= 6:
   a -= 3</a><a style=""""></a></div></div>","13","","1","","","13","0"
"","html-keyboard-response","197","525325","0.0-6.0-11.0-1.0-0.0","907","<div><div style=""""><a style=""white-space:pre-wrap;""> while a >= 6:
   a -= 3</a><a style=""""></a></div></div>","10","","1","","","10","1"
"","html-keyboard-response","198","527847","0.0-6.0-11.0-2.0-0.0","2007","<div><div style=""""><a style=""white-space:pre-wrap;""> while a >= 6:
   a -= 3</a><a style=""""></a></div></div>","7","","1","","","7","2"
"","html-keyboard-response","199","528937","0.0-6.0-11.0-3.0-0.0","574","<div><div style=""""><a style=""white-space:pre-wrap;""> while a >= 6:
   a -= 3</a><a style=""""></a></div></div>","4","","1","","","4","3"
"","html-keyboard-response","200","529694","0.0-6.0-11.0-4.0-0.0","255","<div><div style=""""><a style=""white-space:pre-wrap;""> while a >= 6:
   a -= 3</a><a style=""""></a></div></div>","backspace","","1","","","backspace",""
"","html-keyboard-response","201","532555","0.0-7.0-1.0","2350","<p style=""font-size: 25px;"">Please press space to start the next program<br>>>>>>></p>"," ","","","","","",""
"","html-keyboard-response","202","533491","0.0-7.0-2.0","935","<div><div style="" font-size:25px; color:green;""><a style=""white-space:pre-wrap;""> a = 9</a><a style=""""></a></div></div>","","null","","91","a = 9","",""
"","html-keyboard-response","203","535977","0.0-7.0-4.0-0.0-0.0","1974","<div><div style=""""><a style=""white-space:pre-wrap;""> for i in [1, 2]:
   a /= 3</a><a style=""""></a></div></div>","3","","1","","","3","0"
"","html-keyboard-response","204","536962","0.0-7.0-4.0-1.0-0.0","476","<div><div style=""""><a style=""white-space:pre-wrap;""> for i in [1, 2]:
   a /= 3</a><a style=""""></a></div></div>","1","","1","","","1","1"
"","html-keyboard-response","205","538209","0.0-7.0-4.0-2.0-0.0","735","<div><div style=""""><a style=""white-space:pre-wrap;""> for i in [1, 2]:
   a /= 3</a><a style=""""></a></div></div>","backspace","","1","","","backspace",""
"","html-keyboard-response","206","540050","0.0-7.0-5.0-0.0-0.0","1329","<div><div style=""""><a style=""white-space:pre-wrap;""> while a <= 16:
   a += 6</a><a style=""""></a></div></div>","7","","1","","","7","0"
"","html-keyboard-response","207","541969","0.0-7.0-5.0-1.0-0.0","1406","<div><div style=""""><a style=""white-space:pre-wrap;""> while a <= 16:
   a += 6</a><a style=""""></a></div></div>","13","","1","","","13","1"
"","html-keyboard-response","208","544018","0.0-7.0-5.0-2.0-0.0","1540","<div><div style=""""><a style=""white-space:pre-wrap;""> while a <= 16:
   a += 6</a><a style=""""></a></div></div>","19","","1","","","19","2"
"","html-keyboard-response","209","544862","0.0-7.0-5.0-3.0-0.0","341","<div><div style=""""><a style=""white-space:pre-wrap;""> while a <= 16:
   a += 6</a><a style=""""></a></div></div>","backspace","","1","","","backspace",""
"","html-keyboard-response","210","547145","0.0-7.0-6.0-0.0-0.0","1766","<div><div style=""""><a style=""white-space:pre-wrap;""> while a >= 10:
   a += 1
   a -= 8</a><a style=""""></a></div></div>","20","","1","","","20","0"
"","html-keyboard-response","211","548599","0.0-7.0-6.0-1.0-0.0","948","<div><div style=""""><a style=""white-space:pre-wrap;""> while a >= 10:
   a += 1
   a -= 8</a><a style=""""></a></div></div>","12","","1","","","12","1"
"","html-keyboard-response","212","550610","0.0-7.0-6.0-2.0-0.0","1498","<div><div style=""""><a style=""white-space:pre-wrap;""> while a >= 10:
   a += 1
   a -= 8</a><a style=""""></a></div></div>","13","","1","","","13","2"
"","html-keyboard-response","213","554369","0.0-7.0-6.0-3.0-0.0","3253","<div><div style=""""><a style=""white-space:pre-wrap;""> while a >= 10:
   a += 1
   a -= 8</a><a style=""""></a></div></div>","5","","1","","","5","3"
"","html-keyboard-response","214","555839","0.0-7.0-6.0-4.0-0.0","956","<div><div style=""""><a style=""white-space:pre-wrap;""> while a >= 10:
   a += 1
   a -= 8</a><a style=""""></a></div></div>","backspace","","1","","","backspace",""
"","html-keyboard-response","215","557847","0.0-7.0-7.0-0.0-0.0","1497","<div><div style=""""><a style=""white-space:pre-wrap;""> for i in [1, 2]:
   a *= 3
   a -= 9</a><a style=""""></a></div></div>","15","","1","","","15","0"
"","html-keyboard-response","216","559227","0.0-7.0-7.0-1.0-0.0","869","<div><div style=""""><a style=""white-space:pre-wrap;""> for i in [1, 2]:
   a *= 3
   a -= 9</a><a style=""""></a></div></div>","6","","1","","","6","1"
"","html-keyboard-response","217","561708","0.0-7.0-7.0-2.0-0.0","1970","<div><div style=""""><a style=""white-space:pre-wrap;""> for i in [1, 2]:
   a *= 3
   a -= 9</a><a style=""""></a></div></div>","18","","1","","","18","2"
"","html-keyboard-response","218","562967","0.0-7.0-7.0-3.0-0.0","743","<div><div style=""""><a style=""white-space:pre-wrap;""> for i in [1, 2]:
   a *= 3
   a -= 9</a><a style=""""></a></div></div>","9","","1","","","9","3"
"","html-keyboard-response","219","563840","0.0-7.0-7.0-4.0-0.0","364","<div><div style=""""><a style=""white-space:pre-wrap;""> for i in [1, 2]:
   a *= 3
   a -= 9</a><a style=""""></a></div></div>","backspace","","1","","","backspace",""
"","html-keyboard-response","220","567629","0.0-7.0-8.0-0.0-0.0","3280","<div><div style=""""><a style=""white-space:pre-wrap;""> for i in [1, 2, 3]:
   a = average(a, 1)</a><a style=""""></a></div></div>","5","","1","","","5","0"
"","html-keyboard-response","221","571685","0.0-7.0-8.0-1.0-0.0","3548","<div><div style=""""><a style=""white-space:pre-wrap;""> for i in [1, 2, 3]:
   a = average(a, 1)</a><a style=""""></a></div></div>","3","","1","","","3","1"
"","html-keyboard-response","222","573427","0.0-7.0-8.0-2.0-0.0","1232","<div><div style=""""><a style=""white-space:pre-wrap;""> for i in [1, 2, 3]:
   a = average(a, 1)</a><a style=""""></a></div></div>","2","","1","","","2","2"
"","html-keyboard-response","223","574432","0.0-7.0-8.0-3.0-0.0","496","<div><div style=""""><a style=""white-space:pre-wrap;""> for i in [1, 2, 3]:
   a = average(a, 1)</a><a style=""""></a></div></div>","backspace","","1","","","backspace",""
"","html-keyboard-response","224","576381","0.0-7.0-9.0-0.0-0.0","1445","<div><div style=""""><a style=""white-space:pre-wrap;""> for i in [1, 2]:
   a -= 1
   a *= 5</a><a style=""""></a></div></div>","1","","1","","","1","0"
"","html-keyboard-response","225","577728","0.0-7.0-9.0-1.0-0.0","831","<div><div style=""""><a style=""white-space:pre-wrap;""> for i in [1, 2]:
   a -= 1
   a *= 5</a><a style=""""></a></div></div>","5","","1","","","5","1"
"","html-keyboard-response","226","579573","0.0-7.0-9.0-2.0-0.0","1336","<div><div style=""""><a style=""white-space:pre-wrap;""> for i in [1, 2]:
   a -= 1
   a *= 5</a><a style=""""></a></div></div>","4","","1","","","4","2"
"","html-keyboard-response","227","580632","0.0-7.0-9.0-3.0-0.0","544","<div><div style=""""><a style=""white-space:pre-wrap;""> for i in [1, 2]:
   a -= 1
   a *= 5</a><a style=""""></a></div></div>","20","","1","","","20","3"
"","html-keyboard-response","228","581543","0.0-7.0-9.0-4.0-0.0","406","<div><div style=""""><a style=""white-space:pre-wrap;""> for i in [1, 2]:
   a -= 1
   a *= 5</a><a style=""""></a></div></div>","backspace","","1","","","backspace",""
"","html-keyboard-response","229","584252","0.0-7.0-10.0-0.0-0.0","2199","<div><div style=""""><a style=""white-space:pre-wrap;""> while a >= 12:
   a -= 3</a><a style=""""></a></div></div>","17","","1","","","17","0"
"","html-keyboard-response","230","587388","0.0-7.0-10.0-1.0-0.0","2626","<div><div style=""""><a style=""white-space:pre-wrap;""> while a >= 12:
   a -= 3</a><a style=""""></a></div></div>","14","","1","","","14","1"
"","html-keyboard-response","231","588919","0.0-7.0-10.0-2.0-0.0","1026","<div><div style=""""><a style=""white-space:pre-wrap;""> while a >= 12:
   a -= 3</a><a style=""""></a></div></div>","11","","1","","","11","2"
"","html-keyboard-response","232","589722","0.0-7.0-10.0-3.0-0.0","297","<div><div style=""""><a style=""white-space:pre-wrap;""> while a >= 12:
   a -= 3</a><a style=""""></a></div></div>","backspace","","1","","","backspace",""
"","html-keyboard-response","233","594917","0.0-7.0-11.0-0.0-0.0","4684","<div><div style=""""><a style=""white-space:pre-wrap;""> while a >= 5:
   a -= 5</a><a style=""""></a></div></div>","6","","1","","","6","0"
"","html-keyboard-response","234","596597","0.0-7.0-11.0-1.0-0.0","1169","<div><div style=""""><a style=""white-space:pre-wrap;""> while a >= 5:
   a -= 5</a><a style=""""></a></div></div>","1","","1","","","1","1"
"","html-keyboard-response","235","597299","0.0-7.0-11.0-2.0-0.0","200","<div><div style=""""><a style=""white-space:pre-wrap;""> while a >= 5:
   a -= 5</a><a style=""""></a></div></div>","backspace","","1","","","backspace",""
"","html-keyboard-response","236","599868","0.0-8.0-1.0","2062","<p style=""font-size: 25px;"">Please press space to start the next program<br>>>>>>></p>"," ","","","","","",""
"","html-keyboard-response","237","601500","0.0-8.0-2.0","1630","<div><div style="" font-size:25px; color:green;""><a style=""white-space:pre-wrap;""> a = 18</a><a style=""""></a></div></div>","","null","","19","a = 18","",""
"","html-keyboard-response","238","603507","0.0-8.0-4.0-0.0-0.0","1496","<div><div style=""""><a style=""white-space:pre-wrap;""> for i in [1, 2]:
   a /= 3
   a *= 2</a><a style=""""></a></div></div>","6","","1","","","6","0"
"","html-keyboard-response","239","605026","0.0-8.0-4.0-1.0-0.0","1011","<div><div style=""""><a style=""white-space:pre-wrap;""> for i in [1, 2]:
   a /= 3
   a *= 2</a><a style=""""></a></div></div>","12","","1","","","12","1"
"","html-keyboard-response","240","606495","0.0-8.0-4.0-2.0-0.0","962","<div><div style=""""><a style=""white-space:pre-wrap;""> for i in [1, 2]:
   a /= 3
   a *= 2</a><a style=""""></a></div></div>","4","","1","","","4","2"
"","html-keyboard-response","241","607878","0.0-8.0-4.0-3.0-0.0","870","<div><div style=""""><a style=""white-space:pre-wrap;""> for i in [1, 2]:
   a /= 3
   a *= 2</a><a style=""""></a></div></div>","8","","1","","","8","3"
"","html-keyboard-response","242","608747","0.0-8.0-4.0-4.0-0.0","358","<div><div style=""""><a style=""white-space:pre-wrap;""> for i in [1, 2]:
   a /= 3
   a *= 2</a><a style=""""></a></div></div>","backspace","","1","","","backspace",""
"","html-keyboard-response","243","610971","0.0-8.0-5.0-0.0-0.0","1718","<div><div style=""""><a style=""white-space:pre-wrap;""> for i in [1, 2, 3]:
   a /= 2</a><a style=""""></a></div></div>","4","","1","","","4","0"
"","html-keyboard-response","244","612350","0.0-8.0-5.0-1.0-0.0","872","<div><div style=""""><a style=""white-space:pre-wrap;""> for i in [1, 2, 3]:
   a /= 2</a><a style=""""></a></div></div>","2","","1","","","2","1"
"","html-keyboard-response","245","613270","0.0-8.0-5.0-2.0-0.0","413","<div><div style=""""><a style=""white-space:pre-wrap;""> for i in [1, 2, 3]:
   a /= 2</a><a style=""""></a></div></div>","1","","1","","","1","2"
"","html-keyboard-response","246","614329","0.0-8.0-5.0-3.0-0.0","554","<div><div style=""""><a style=""white-space:pre-wrap;""> for i in [1, 2, 3]:
   a /= 2</a><a style=""""></a></div></div>","backspace","","1","","","backspace",""
"","html-keyboard-response","247","616351","0.0-8.0-6.0-0.0-0.0","1518","<div><div style=""""><a style=""white-space:pre-wrap;""> while a <= 7:
   a += 2</a><a style=""""></a></div></div>","3","","1","","","3","0"
"","html-keyboard-response","248","617465","0.0-8.0-6.0-1.0-0.0","606","<div><div style=""""><a style=""white-space:pre-wrap;""> while a <= 7:
   a += 2</a><a style=""""></a></div></div>","5","","1","","","5","1"
"","html-keyboard-response","249","618788","0.0-8.0-6.0-2.0-0.0","821","<div><div style=""""><a style=""white-space:pre-wrap;""> while a <= 7:
   a += 2</a><a style=""""></a></div></div>","7","","1","","","7","2"
"","html-keyboard-response","250","620172","0.0-8.0-6.0-3.0-0.0","871","<div><div style=""""><a style=""white-space:pre-wrap;""> while a <= 7:
   a += 2</a><a style=""""></a></div></div>","9","","1","","","9","3"
"","html-keyboard-response","251","620783","0.0-8.0-6.0-4.0-0.0","107","<div><div style=""""><a style=""white-space:pre-wrap;""> while a <= 7:
   a += 2</a><a style=""""></a></div></div>","backspace","","1","","","backspace",""
"","html-keyboard-response","252","623948","0.0-8.0-7.0-0.0-0.0","2650","<div><div style=""""><a style=""white-space:pre-wrap;""> for i in [1, 2]:
   a += 9
   a /= 3</a><a style=""""></a></div></div>","18","","1","","","18","0"
"","html-keyboard-response","253","625049","0.0-8.0-7.0-1.0-0.0","590","<div><div style=""""><a style=""white-space:pre-wrap;""> for i in [1, 2]:
   a += 9
   a /= 3</a><a style=""""></a></div></div>","6","","1","","","6","1"
"","html-keyboard-response","254","628044","0.0-8.0-7.0-2.0-0.0","2492","<div><div style=""""><a style=""white-space:pre-wrap;""> for i in [1, 2]:
   a += 9
   a /= 3</a><a style=""""></a></div></div>","15","","1","","","15","2"
"","html-keyboard-response","255","628838","0.0-8.0-7.0-3.0-0.0","278","<div><div style=""""><a style=""white-space:pre-wrap;""> for i in [1, 2]:
   a += 9
   a /= 3</a><a style=""""></a></div></div>","5","","1","","","5","3"
"","html-keyboard-response","256","629707","0.0-8.0-7.0-4.0-0.0","359","<div><div style=""""><a style=""white-space:pre-wrap;""> for i in [1, 2]:
   a += 9
   a /= 3</a><a style=""""></a></div></div>","backspace","","1","","","backspace",""
"","html-keyboard-response","257","635025","0.0-8.0-8.0-0.0-0.0","4806","<div><div style=""""><a style=""white-space:pre-wrap;""> while a <= 11:
   a = round_down(a*1.5)</a><a style=""""></a></div></div>","7","","1","","","7","0"
"","html-keyboard-response","258","640841","0.0-8.0-8.0-1.0-0.0","5299","<div><div style=""""><a style=""white-space:pre-wrap;""> while a <= 11:
   a = round_down(a*1.5)</a><a style=""""></a></div></div>","10","","1","","","10","1"
"","html-keyboard-response","259","641779","0.0-8.0-8.0-2.0-0.0","422","<div><div style=""""><a style=""white-space:pre-wrap;""> while a <= 11:
   a = round_down(a*1.5)</a><a style=""""></a></div></div>","15","","1","","","15","2"
"","html-keyboard-response","260","642462","0.0-8.0-8.0-3.0-0.0","168","<div><div style=""""><a style=""white-space:pre-wrap;""> while a <= 11:
   a = round_down(a*1.5)</a><a style=""""></a></div></div>","backspace","","1","","","backspace",""
"","html-keyboard-response","261","645174","0.0-8.0-9.0-0.0-0.0","2195","<div><div style=""""><a style=""white-space:pre-wrap;""> while a >= 8:
   a = average(a,3)</a><a style=""""></a></div></div>","9","","1","","","9","0"
"","html-keyboard-response","262","649971","0.0-8.0-9.0-1.0-0.0","4286","<div><div style=""""><a style=""white-space:pre-wrap;""> while a >= 8:
   a = average(a,3)</a><a style=""""></a></div></div>","6","","1","","","6","1"
"","html-keyboard-response","263","650931","0.0-8.0-9.0-2.0-0.0","457","<div><div style=""""><a style=""white-space:pre-wrap;""> while a >= 8:
   a = average(a,3)</a><a style=""""></a></div></div>","backspace","","1","","","backspace",""
"","html-keyboard-response","264","653892","0.0-8.0-10.0-0.0-0.0","2457","<div><div style=""""><a style=""white-space:pre-wrap;""> for i in [1, 2, 3]:
   a *= 2
   a -= 5</a><a style=""""></a></div></div>","12","","1","","","12","0"
"","html-keyboard-response","265","654939","0.0-8.0-10.0-1.0-0.0","535","<div><div style=""""><a style=""white-space:pre-wrap;""> for i in [1, 2, 3]:
   a *= 2
   a -= 5</a><a style=""""></a></div></div>","7","","1","","","7","1"
"","html-keyboard-response","266","656868","0.0-8.0-10.0-2.0-0.0","1416","<div><div style=""""><a style=""white-space:pre-wrap;""> for i in [1, 2, 3]:
   a *= 2
   a -= 5</a><a style=""""></a></div></div>","14","","1","","","14","2"
"","html-keyboard-response","267","661182","0.0-8.0-10.0-3.0-0.0","3797","<div><div style=""""><a style=""white-space:pre-wrap;""> for i in [1, 2, 3]:
   a *= 2
   a -= 5</a><a style=""""></a></div></div>","9","","1","","","9","3"
"","html-keyboard-response","268","662595","0.0-8.0-10.0-4.0-0.0","907","<div><div style=""""><a style=""white-space:pre-wrap;""> for i in [1, 2, 3]:
   a *= 2
   a -= 5</a><a style=""""></a></div></div>","18","","1","","","18","4"
"","html-keyboard-response","269","663624","0.0-8.0-10.0-5.0-0.0","525","<div><div style=""""><a style=""white-space:pre-wrap;""> for i in [1, 2, 3]:
   a *= 2
   a -= 5</a><a style=""""></a></div></div>","13","","1","","","13","5"
"","html-keyboard-response","270","664402","0.0-8.0-10.0-6.0-0.0","261","<div><div style=""""><a style=""white-space:pre-wrap;""> for i in [1, 2, 3]:
   a *= 2
   a -= 5</a><a style=""""></a></div></div>","backspace","","1","","","backspace",""
"","html-keyboard-response","271","666721","0.0-8.0-11.0-0.0-0.0","1807","<div><div style=""""><a style=""white-space:pre-wrap;""> for i in [1, 2, 3]:
   a += 4
   a -= 7</a><a style=""""></a></div></div>","17","","1","","","17","0"
"","html-keyboard-response","272","667684","0.0-8.0-11.0-1.0-0.0","460","<div><div style=""""><a style=""white-space:pre-wrap;""> for i in [1, 2, 3]:
   a += 4
   a -= 7</a><a style=""""></a></div></div>","10","","1","","","10","1"
"","html-keyboard-response","273","671035","0.0-8.0-11.0-2.0-0.0","2846","<div><div style=""""><a style=""white-space:pre-wrap;""> for i in [1, 2, 3]:
   a += 4
   a -= 7</a><a style=""""></a></div></div>","14","","1","","","14","2"
"","html-keyboard-response","274","671885","0.0-8.0-11.0-3.0-0.0","339","<div><div style=""""><a style=""white-space:pre-wrap;""> for i in [1, 2, 3]:
   a += 4
   a -= 7</a><a style=""""></a></div></div>","7","","1","","","7","3"
"","html-keyboard-response","275","676442","0.0-8.0-11.0-4.0-0.0","4056","<div><div style=""""><a style=""white-space:pre-wrap;""> for i in [1, 2, 3]:
   a += 4
   a -= 7</a><a style=""""></a></div></div>","11","","1","","","11","4"
"","html-keyboard-response","276","677618","0.0-8.0-11.0-5.0-0.0","671","<div><div style=""""><a style=""white-space:pre-wrap;""> for i in [1, 2, 3]:
   a += 4
   a -= 7</a><a style=""""></a></div></div>","4","","1","","","4","5"
"","html-keyboard-response","277","678720","0.0-8.0-11.0-6.0-0.0","594","<div><div style=""""><a style=""white-space:pre-wrap;""> for i in [1, 2, 3]:
   a += 4
   a -= 7</a><a style=""""></a></div></div>","backspace","","1","","","backspace",""
"","html-keyboard-response","278","778906","0.0-9.0-0.0-0.0","99682","<p style=""position:absolute; top:30%; font-size:25px; color:green;"" >Take a short break now</p>"," ","","","","","",""
"","html-keyboard-response","279","779903","0.0-9.0-1.0","995","<p style=""font-size: 25px;"">Please press space to start the next program<br>>>>>>></p>"," ","","","","","",""
"","html-keyboard-response","280","780968","0.0-9.0-2.0","1064","<div><div style="" font-size:25px; color:green;""><a style=""white-space:pre-wrap;""> a = 11</a><a style=""""></a></div></div>","","null","","64","a = 11","",""
"","html-keyboard-response","281","783471","0.0-9.0-4.0-0.0-0.0","1990","<div><div style=""""><a style=""white-space:pre-wrap;""> while a >= 5:
   a += 4
   a /= 3</a><a style=""""></a></div></div>","15","","1","","","15","0"
"","html-keyboard-response","282","784405","0.0-9.0-4.0-1.0-0.0","430","<div><div style=""""><a style=""white-space:pre-wrap;""> while a >= 5:
   a += 4
   a /= 3</a><a style=""""></a></div></div>","5","","1","","","5","1"
"","html-keyboard-response","283","786991","0.0-9.0-4.0-2.0-0.0","2081","<div><div style=""""><a style=""white-space:pre-wrap;""> while a >= 5:
   a += 4
   a /= 3</a><a style=""""></a></div></div>","9","","1","","","9","2"
"","html-keyboard-response","284","787632","0.0-9.0-4.0-3.0-0.0","137","<div><div style=""""><a style=""white-space:pre-wrap;""> while a >= 5:
   a += 4
   a /= 3</a><a style=""""></a></div></div>","3","","1","","","3","3"
"","html-keyboard-response","285","788809","0.0-9.0-4.0-4.0-0.0","667","<div><div style=""""><a style=""white-space:pre-wrap;""> while a >= 5:
   a += 4
   a /= 3</a><a style=""""></a></div></div>","backspace","","1","","","backspace",""
"","html-keyboard-response","286","794045","0.0-9.0-5.0-0.0-0.0","4733","<div><div style=""""><a style=""white-space:pre-wrap;""> while a <= 11:
   a = round_down(a*2.5)</a><a style=""""></a></div></div>","7","","1","","","7","0"
"","html-keyboard-response","287","806227","0.0-9.0-5.0-1.0-0.0","11679","<div><div style=""""><a style=""white-space:pre-wrap;""> while a <= 11:
   a = round_down(a*2.5)</a><a style=""""></a></div></div>","17","","1","","","17","1"
"","html-keyboard-response","288","807902","0.0-9.0-5.0-2.0-0.0","1167","<div><div style=""""><a style=""white-space:pre-wrap;""> while a <= 11:
   a = round_down(a*2.5)</a><a style=""""></a></div></div>","backspace","","1","","","backspace",""
"","html-keyboard-response","289","810653","0.0-9.0-6.0-0.0-0.0","2243","<div><div style=""""><a style=""white-space:pre-wrap;""> for i in [1, 2, 3, 4]:
   a = average(a,1)</a><a style=""""></a></div></div>","9","","1","","","9","0"
"","html-keyboard-response","290","812257","0.0-9.0-6.0-1.0-0.0","1088","<div><div style=""""><a style=""white-space:pre-wrap;""> for i in [1, 2, 3, 4]:
   a = average(a,1)</a><a style=""""></a></div></div>","5","","1","","","5","1"
"","html-keyboard-response","291","814434","0.0-9.0-6.0-2.0-0.0","1673","<div><div style=""""><a style=""white-space:pre-wrap;""> for i in [1, 2, 3, 4]:
   a = average(a,1)</a><a style=""""></a></div></div>","3","","1","","","3","2"
"","html-keyboard-response","292","817543","0.0-9.0-6.0-3.0-0.0","2603","<div><div style=""""><a style=""white-space:pre-wrap;""> for i in [1, 2, 3, 4]:
   a = average(a,1)</a><a style=""""></a></div></div>","2","","1","","","2","3"
"","html-keyboard-response","293","818346","0.0-9.0-6.0-4.0-0.0","301","<div><div style=""""><a style=""white-space:pre-wrap;""> for i in [1, 2, 3, 4]:
   a = average(a,1)</a><a style=""""></a></div></div>","backspace","","1","","","backspace",""
"","html-keyboard-response","294","821034","0.0-9.0-7.0-0.0-0.0","2169","<div><div style=""""><a style=""white-space:pre-wrap;""> while a <= 10:
   a *= 3
   a -= 1</a><a style=""""></a></div></div>","6","","1","","","6","0"
"","html-keyboard-response","295","822928","0.0-9.0-7.0-1.0-0.0","1383","<div><div style=""""><a style=""white-space:pre-wrap;""> while a <= 10:
   a *= 3
   a -= 1</a><a style=""""></a></div></div>","5","","1","","","5","1"
"","html-keyboard-response","296","825072","0.0-9.0-7.0-2.0-0.0","1637","<div><div style=""""><a style=""white-space:pre-wrap;""> while a <= 10:
   a *= 3
   a -= 1</a><a style=""""></a></div></div>","15","","1","","","15","2"
"","html-keyboard-response","297","827279","0.0-9.0-7.0-3.0-0.0","1692","<div><div style=""""><a style=""white-space:pre-wrap;""> while a <= 10:
   a *= 3
   a -= 1</a><a style=""""></a></div></div>","14","","1","","","14","3"
"","html-keyboard-response","298","828126","0.0-9.0-7.0-4.0-0.0","335","<div><div style=""""><a style=""white-space:pre-wrap;""> while a <= 10:
   a *= 3
   a -= 1</a><a style=""""></a></div></div>","backspace","","1","","","backspace",""
"","html-keyboard-response","299","830551","0.0-9.0-8.0-0.0-0.0","1910","<div><div style=""""><a style=""white-space:pre-wrap;""> while a >= 4:
   a -= 5
   a += 1</a><a style=""""></a></div></div>","9","","1","","","9","0"
"","html-keyboard-response","300","831512","0.0-9.0-8.0-1.0-0.0","447","<div><div style=""""><a style=""white-space:pre-wrap;""> while a >= 4:
   a -= 5
   a += 1</a><a style=""""></a></div></div>","10","","1","","","10","1"
"","html-keyboard-response","301","833504","0.0-9.0-8.0-2.0-0.0","1487","<div><div style=""""><a style=""white-space:pre-wrap;""> while a >= 4:
   a -= 5
   a += 1</a><a style=""""></a></div></div>","5","","1","","","5","2"
"","html-keyboard-response","302","835505","0.0-9.0-8.0-3.0-0.0","1496","<div><div style=""""><a style=""white-space:pre-wrap;""> while a >= 4:
   a -= 5
   a += 1</a><a style=""""></a></div></div>","6","","1","","","6","3"
"","html-keyboard-response","303","837743","0.0-9.0-8.0-4.0-0.0","1732","<div><div style=""""><a style=""white-space:pre-wrap;""> while a >= 4:
   a -= 5
   a += 1</a><a style=""""></a></div></div>","1","","1","","","1","4"
"","html-keyboard-response","304","839048","0.0-9.0-8.0-5.0-0.0","801","<div><div style=""""><a style=""white-space:pre-wrap;""> while a >= 4:
   a -= 5
   a += 1</a><a style=""""></a></div></div>","2","","1","","","2","5"
"","html-keyboard-response","305","839955","0.0-9.0-8.0-6.0-0.0","401","<div><div style=""""><a style=""white-space:pre-wrap;""> while a >= 4:
   a -= 5
   a += 1</a><a style=""""></a></div></div>","backspace","","1","","","backspace",""
"","html-keyboard-response","306","842567","0.0-9.0-9.0-0.0-0.0","2099","<div><div style=""""><a style=""white-space:pre-wrap;""> for i in [1, 2]:
   a *= 3</a><a style=""""></a></div></div>","6","","1","","","6","0"
"","html-keyboard-response","307","843950","0.0-9.0-9.0-1.0-0.0","871","<div><div style=""""><a style=""white-space:pre-wrap;""> for i in [1, 2]:
   a *= 3</a><a style=""""></a></div></div>","18","","1","","","18","1"
"","html-keyboard-response","308","844685","0.0-9.0-9.0-2.0-0.0","219","<div><div style=""""><a style=""white-space:pre-wrap;""> for i in [1, 2]:
   a *= 3</a><a style=""""></a></div></div>","backspace","","1","","","backspace",""
"","html-keyboard-response","309","846784","0.0-9.0-10.0-0.0-0.0","1588","<div><div style=""""><a style=""white-space:pre-wrap;""> while a >= 11:
   a /= 3
   a *= 2</a><a style=""""></a></div></div>","6","","1","","","6","0"
"","html-keyboard-response","310","848195","0.0-9.0-10.0-1.0-0.0","904","<div><div style=""""><a style=""white-space:pre-wrap;""> while a >= 11:
   a /= 3
   a *= 2</a><a style=""""></a></div></div>","12","","1","","","12","1"
"","html-keyboard-response","311","849542","0.0-9.0-10.0-2.0-0.0","846","<div><div style=""""><a style=""white-space:pre-wrap;""> while a >= 11:
   a /= 3
   a *= 2</a><a style=""""></a></div></div>","4","","1","","","4","2"
"","html-keyboard-response","312","850722","0.0-9.0-10.0-3.0-0.0","671","<div><div style=""""><a style=""white-space:pre-wrap;""> while a >= 11:
   a /= 3
   a *= 2</a><a style=""""></a></div></div>","8","","1","","","8","3"
"","html-keyboard-response","313","854415","0.0-9.0-10.0-4.0-0.0","3183","<div><div style=""""><a style=""white-space:pre-wrap;""> while a >= 11:
   a /= 3
   a *= 2</a><a style=""""></a></div></div>","backspace","","1","","","backspace",""
"","html-keyboard-response","314","857004","0.0-9.0-11.0-0.0-0.0","2081","<div><div style=""""><a style=""white-space:pre-wrap;""> while a <= 17:
   a += 4</a><a style=""""></a></div></div>","12","","1","","","12","0"
"","html-keyboard-response","315","859937","0.0-9.0-11.0-1.0-0.0","2428","<div><div style=""""><a style=""white-space:pre-wrap;""> while a <= 17:
   a += 4</a><a style=""""></a></div></div>","16","","1","","","16","1"
"","html-keyboard-response","316","861174","0.0-9.0-11.0-2.0-0.0","728","<div><div style=""""><a style=""white-space:pre-wrap;""> while a <= 17:
   a += 4</a><a style=""""></a></div></div>","20","","1","","","20","2"
"","html-keyboard-response","317","862598","0.0-9.0-11.0-3.0-0.0","910","<div><div style=""""><a style=""white-space:pre-wrap;""> while a <= 17:
   a += 4</a><a style=""""></a></div></div>","backspace","","1","","","backspace",""
"","html-keyboard-response","318","864567","0.0-10.0-1.0","1461","<p style=""font-size: 25px;"">Please press space to start the next program<br>>>>>>></p>"," ","","","","","",""
"","html-keyboard-response","319","865849","0.0-10.0-2.0","1280","<div><div style="" font-size:25px; color:green;""><a style=""white-space:pre-wrap;""> a = 8</a><a style=""""></a></div></div>","","null","","37","a = 8","",""
"","html-keyboard-response","320","868064","0.0-10.0-4.0-0.0-0.0","1708","<div><div style=""""><a style=""white-space:pre-wrap;""> while a <= 17:
   a -= 2
   a += 6</a><a style=""""></a></div></div>","6","","1","","","6","0"
"","html-keyboard-response","321","869895","0.0-10.0-4.0-1.0-0.0","1318","<div><div style=""""><a style=""white-space:pre-wrap;""> while a <= 17:
   a -= 2
   a += 6</a><a style=""""></a></div></div>","12","","1","","","12","1"
"","html-keyboard-response","322","875849","0.0-10.0-4.0-2.0-0.0","5437","<div><div style=""""><a style=""white-space:pre-wrap;""> while a <= 17:
   a -= 2
   a += 6</a><a style=""""></a></div></div>","10","","1","","","10","2"
"","html-keyboard-response","323","877313","0.0-10.0-4.0-3.0-0.0","955","<div><div style=""""><a style=""white-space:pre-wrap;""> while a <= 17:
   a -= 2
   a += 6</a><a style=""""></a></div></div>","16","","1","","","16","3"
"","html-keyboard-response","324","880159","0.0-10.0-4.0-4.0-0.0","2344","<div><div style=""""><a style=""white-space:pre-wrap;""> while a <= 17:
   a -= 2
   a += 6</a><a style=""""></a></div></div>","14","","1","","","14","4"
"","html-keyboard-response","325","881179","0.0-10.0-4.0-5.0-0.0","510","<div><div style=""""><a style=""white-space:pre-wrap;""> while a <= 17:
   a -= 2
   a += 6</a><a style=""""></a></div></div>","20","","1","","","20","5"
"","html-keyboard-response","326","882196","0.0-10.0-4.0-6.0-0.0","515","<div><div style=""""><a style=""white-space:pre-wrap;""> while a <= 17:
   a -= 2
   a += 6</a><a style=""""></a></div></div>","backspace","","1","","","backspace",""
"","html-keyboard-response","327","884366","0.0-10.0-5.0-0.0-0.0","1662","<div><div style=""""><a style=""white-space:pre-wrap;""> for i in [1, 2]:
   a /= 2</a><a style=""""></a></div></div>","10","","1","","","10","0"
"","html-keyboard-response","328","885444","0.0-10.0-5.0-1.0-0.0","566","<div><div style=""""><a style=""white-space:pre-wrap;""> for i in [1, 2]:
   a /= 2</a><a style=""""></a></div></div>","5","","1","","","5","1"
"","html-keyboard-response","329","887007","0.0-10.0-5.0-2.0-0.0","1057","<div><div style=""""><a style=""white-space:pre-wrap;""> for i in [1, 2]:
   a /= 2</a><a style=""""></a></div></div>","backspace","","1","","","backspace",""
"","html-keyboard-response","330","892725","0.0-10.0-6.0-0.0-0.0","5212","<div><div style=""""><a style=""white-space:pre-wrap;""> for i in [1, 2, 3]:
   a = round_up(a*1.5)</a><a style=""""></a></div></div>","8","","1","","","8","0"
"","html-keyboard-response","331","895806","0.0-10.0-6.0-1.0-0.0","2575","<div><div style=""""><a style=""white-space:pre-wrap;""> for i in [1, 2, 3]:
   a = round_up(a*1.5)</a><a style=""""></a></div></div>","12","","1","","","12","1"
"","html-keyboard-response","332","898026","0.0-10.0-6.0-2.0-0.0","1706","<div><div style=""""><a style=""white-space:pre-wrap;""> for i in [1, 2, 3]:
   a = round_up(a*1.5)</a><a style=""""></a></div></div>","18","","1","","","18","2"
"","html-keyboard-response","333","898908","0.0-10.0-6.0-3.0-0.0","376","<div><div style=""""><a style=""white-space:pre-wrap;""> for i in [1, 2, 3]:
   a = round_up(a*1.5)</a><a style=""""></a></div></div>","backspace","","1","","","backspace",""
"","html-keyboard-response","334","901950","0.0-10.0-7.0-0.0-0.0","2534","<div><div style=""""><a style=""white-space:pre-wrap;""> for i in [1, 2, 3, 4]:
   a = average(a,2)</a><a style=""""></a></div></div>","10","","1","","","10","0"
"","html-keyboard-response","335","903462","0.0-10.0-7.0-1.0-0.0","998","<div><div style=""""><a style=""white-space:pre-wrap;""> for i in [1, 2, 3, 4]:
   a = average(a,2)</a><a style=""""></a></div></div>","6","","1","","","6","1"
"","html-keyboard-response","336","906077","0.0-10.0-7.0-2.0-0.0","2112","<div><div style=""""><a style=""white-space:pre-wrap;""> for i in [1, 2, 3, 4]:
   a = average(a,2)</a><a style=""""></a></div></div>","4","","1","","","4","2"
"","html-keyboard-response","337","908318","0.0-10.0-7.0-3.0-0.0","1725","<div><div style=""""><a style=""white-space:pre-wrap;""> for i in [1, 2, 3, 4]:
   a = average(a,2)</a><a style=""""></a></div></div>","3","","1","","","3","3"
"","html-keyboard-response","338","909047","0.0-10.0-7.0-4.0-0.0","225","<div><div style=""""><a style=""white-space:pre-wrap;""> for i in [1, 2, 3, 4]:
   a = average(a,2)</a><a style=""""></a></div></div>","backspace","","1","","","backspace",""
"","html-keyboard-response","339","911288","0.0-10.0-8.0-0.0-0.0","1724","<div><div style=""""><a style=""white-space:pre-wrap;""> while a <= 5:
   a += 7
   a /= 2</a><a style=""""></a></div></div>","10","","1","","","10","0"
"","html-keyboard-response","340","912910","0.0-10.0-8.0-1.0-0.0","1112","<div><div style=""""><a style=""white-space:pre-wrap;""> while a <= 5:
   a += 7
   a /= 2</a><a style=""""></a></div></div>","5","","1","","","5","1"
"","html-keyboard-response","341","916057","0.0-10.0-8.0-2.0-0.0","2644","<div><div style=""""><a style=""white-space:pre-wrap;""> while a <= 5:
   a += 7
   a /= 2</a><a style=""""></a></div></div>","12","","1","","","12","2"
"","html-keyboard-response","342","917821","0.0-10.0-8.0-3.0-0.0","1261","<div><div style=""""><a style=""white-space:pre-wrap;""> while a <= 5:
   a += 7
   a /= 2</a><a style=""""></a></div></div>","6","","1","","","6","3"
"","html-keyboard-response","343","921194","0.0-10.0-8.0-4.0-0.0","2868","<div><div style=""""><a style=""white-space:pre-wrap;""> while a <= 5:
   a += 7
   a /= 2</a><a style=""""></a></div></div>","backspace","","1","","","backspace",""
"","html-keyboard-response","344","923212","0.0-10.0-9.0-0.0-0.0","1502","<div><div style=""""><a style=""white-space:pre-wrap;""> while a <= 15:
   a += 3</a><a style=""""></a></div></div>","9","","1","","","9","0"
"","html-keyboard-response","345","925941","0.0-10.0-9.0-1.0-0.0","2226","<div><div style=""""><a style=""white-space:pre-wrap;""> while a <= 15:
   a += 3</a><a style=""""></a></div></div>","12","","1","","","12","1"
"","html-keyboard-response","346","926990","0.0-10.0-9.0-2.0-0.0","544","<div><div style=""""><a style=""white-space:pre-wrap;""> while a <= 15:
   a += 3</a><a style=""""></a></div></div>","15","","1","","","15","2"
"","html-keyboard-response","347","927945","0.0-10.0-9.0-3.0-0.0","438","<div><div style=""""><a style=""white-space:pre-wrap;""> while a <= 15:
   a += 3</a><a style=""""></a></div></div>","18","","1","","","18","3"
"","html-keyboard-response","348","928863","0.0-10.0-9.0-4.0-0.0","403","<div><div style=""""><a style=""white-space:pre-wrap;""> while a <= 15:
   a += 3</a><a style=""""></a></div></div>","backspace","","1","","","backspace",""
"","html-keyboard-response","349","932083","0.0-10.0-10.0-0.0-0.0","2710","<div><div style=""""><a style=""white-space:pre-wrap;""> while a >= 12:
   a /= 3
   a *= 2</a><a style=""""></a></div></div>","6","","1","","","6","0"
"","html-keyboard-response","350","933486","0.0-10.0-10.0-1.0-0.0","893","<div><div style=""""><a style=""white-space:pre-wrap;""> while a >= 12:
   a /= 3
   a *= 2</a><a style=""""></a></div></div>","12","","1","","","12","1"
"","html-keyboard-response","351","936477","0.0-10.0-10.0-2.0-0.0","2480","<div><div style=""""><a style=""white-space:pre-wrap;""> while a >= 12:
   a /= 3
   a *= 2</a><a style=""""></a></div></div>","4","","1","","","4","2"
"","html-keyboard-response","352","937843","0.0-10.0-10.0-3.0-0.0","859","<div><div style=""""><a style=""white-space:pre-wrap;""> while a >= 12:
   a /= 3
   a *= 2</a><a style=""""></a></div></div>","8","","1","","","8","3"
"","html-keyboard-response","353","938881","0.0-10.0-10.0-4.0-0.0","521","<div><div style=""""><a style=""white-space:pre-wrap;""> while a >= 12:
   a /= 3
   a *= 2</a><a style=""""></a></div></div>","backspace","","1","","","backspace",""
"","html-keyboard-response","354","941221","0.0-10.0-11.0-0.0-0.0","1832","<div><div style=""""><a style=""white-space:pre-wrap;""> for i in [1, 2, 3]:
   a *= 2
   a -= 9</a><a style=""""></a></div></div>","16","","1","","","16","0"
"","html-keyboard-response","355","942750","0.0-10.0-11.0-1.0-0.0","1020","<div><div style=""""><a style=""white-space:pre-wrap;""> for i in [1, 2, 3]:
   a *= 2
   a -= 9</a><a style=""""></a></div></div>","7","","1","","","7","1"
"","html-keyboard-response","356","944117","0.0-10.0-11.0-2.0-0.0","855","<div><div style=""""><a style=""white-space:pre-wrap;""> for i in [1, 2, 3]:
   a *= 2
   a -= 9</a><a style=""""></a></div></div>","14","","1","","","14","2"
"","html-keyboard-response","357","946351","0.0-10.0-11.0-3.0-0.0","1719","<div><div style=""""><a style=""white-space:pre-wrap;""> for i in [1, 2, 3]:
   a *= 2
   a -= 9</a><a style=""""></a></div></div>","5","","1","","","5","3"
"","html-keyboard-response","358","948970","0.0-10.0-11.0-4.0-0.0","2103","<div><div style=""""><a style=""white-space:pre-wrap;""> for i in [1, 2, 3]:
   a *= 2
   a -= 9</a><a style=""""></a></div></div>","10","","1","","","10","4"
"","html-keyboard-response","359","950241","0.0-10.0-11.0-5.0-0.0","764","<div><div style=""""><a style=""white-space:pre-wrap;""> for i in [1, 2, 3]:
   a *= 2
   a -= 9</a><a style=""""></a></div></div>","1","","1","","","1","5"
"","html-keyboard-response","360","951144","0.0-10.0-11.0-6.0-0.0","388","<div><div style=""""><a style=""white-space:pre-wrap;""> for i in [1, 2, 3]:
   a *= 2
   a -= 9</a><a style=""""></a></div></div>","backspace","","1","","","backspace",""
"","html-keyboard-response","361","953022","0.0-11.0-1.0","1368","<p style=""font-size: 25px;"">Please press space to start the next program<br>>>>>>></p>"," ","","","","","",""
"","html-keyboard-response","362","953799","0.0-11.0-2.0","775","<div><div style="" font-size:25px; color:green;""><a style=""white-space:pre-wrap;""> a = 16</a><a style=""""></a></div></div>","","null","","73","a = 16","",""
"","html-keyboard-response","363","955760","0.0-11.0-4.0-0.0-0.0","1457","<div><div style=""""><a style=""white-space:pre-wrap;""> while a >= 6:
   a /= 2</a><a style=""""></a></div></div>","8","","1","","","8","0"
"","html-keyboard-response","364","957642","0.0-11.0-4.0-1.0-0.0","1366","<div><div style=""""><a style=""white-space:pre-wrap;""> while a >= 6:
   a /= 2</a><a style=""""></a></div></div>","4","","1","","","4","1"
"","html-keyboard-response","365","958614","0.0-11.0-4.0-2.0-0.0","470","<div><div style=""""><a style=""white-space:pre-wrap;""> while a >= 6:
   a /= 2</a><a style=""""></a></div></div>","backspace","","1","","","backspace",""
"","html-keyboard-response","366","960721","0.0-11.0-5.0-0.0-0.0","1598","<div><div style=""""><a style=""white-space:pre-wrap;""> for i in [1, 2, 3]:
   a = round_up(a*1.5)</a><a style=""""></a></div></div>","6","","1","","","6","0"
"","html-keyboard-response","367","961930","0.0-11.0-5.0-1.0-0.0","705","<div><div style=""""><a style=""white-space:pre-wrap;""> for i in [1, 2, 3]:
   a = round_up(a*1.5)</a><a style=""""></a></div></div>","9","","1","","","9","1"
"","html-keyboard-response","368","972131","0.0-11.0-5.0-2.0-0.0","9694","<div><div style=""""><a style=""white-space:pre-wrap;""> for i in [1, 2, 3]:
   a = round_up(a*1.5)</a><a style=""""></a></div></div>","14","","1","","","14","2"
"","html-keyboard-response","369","977989","0.0-11.0-5.0-3.0-0.0","5354","<div><div style=""""><a style=""white-space:pre-wrap;""> for i in [1, 2, 3]:
   a = round_up(a*1.5)</a><a style=""""></a></div></div>","100","","0","","","backspace",""
"","html-keyboard-response","370","982001","0.0-11.0-5.0-3.0-1.0-0.0","null","<div><p style=""font-size:25px; color:green;"">end of loop<br>>>>>>></p>
						<div>Hit the ""end loop"" key to continue</div></div>","null","","","","","",""
"","html-keyboard-response","371","982563","0.0-11.0-5.0-3.1-0.1","559","<div><div style=""""><a style=""white-space:pre-wrap;""> for i in [1, 2, 3]:
   a = round_up(a*1.5)</a><a style=""""></a></div></div>","backspace","","1","","","backspace",""
"","html-keyboard-response","372","986805","0.0-11.0-6.0-0.0-0.0","3735","<div><div style=""""><a style=""white-space:pre-wrap;""> for i in [1, 2]:
   a += 5
   a -= 6</a><a style=""""></a></div></div>","19","","1","","","19","0"
"","html-keyboard-response","373","988456","0.0-11.0-6.0-1.0-0.0","1149","<div><div style=""""><a style=""white-space:pre-wrap;""> for i in [1, 2]:
   a += 5
   a -= 6</a><a style=""""></a></div></div>","13","","1","","","13","1"
"","html-keyboard-response","374","990416","0.0-11.0-6.0-2.0-0.0","1455","<div><div style=""""><a style=""white-space:pre-wrap;""> for i in [1, 2]:
   a += 5
   a -= 6</a><a style=""""></a></div></div>","18","","1","","","18","2"
"","html-keyboard-response","375","991882","0.0-11.0-6.0-3.0-0.0","964","<div><div style=""""><a style=""white-space:pre-wrap;""> for i in [1, 2]:
   a += 5
   a -= 6</a><a style=""""></a></div></div>","12","","1","","","12","3"
"","html-keyboard-response","376","992764","0.0-11.0-6.0-4.0-0.0","375","<div><div style=""""><a style=""white-space:pre-wrap;""> for i in [1, 2]:
   a += 5
   a -= 6</a><a style=""""></a></div></div>","backspace","","1","","","backspace",""
"","html-keyboard-response","377","998023","0.0-11.0-7.0-0.0-0.0","4753","<div><div style=""""><a style=""white-space:pre-wrap;""> while a >= 6:
   a = average(a,4)</a><a style=""""></a></div></div>","8","","1","","","8","0"
"","html-keyboard-response","378","1000875","0.0-11.0-7.0-1.0-0.0","2345","<div><div style=""""><a style=""white-space:pre-wrap;""> while a >= 6:
   a = average(a,4)</a><a style=""""></a></div></div>","6","","1","","","6","1"
"","html-keyboard-response","379","1002815","0.0-11.0-7.0-2.0-0.0","1435","<div><div style=""""><a style=""white-space:pre-wrap;""> while a >= 6:
   a = average(a,4)</a><a style=""""></a></div></div>","5","","1","","","5","2"
"","html-keyboard-response","380","1004096","0.0-11.0-7.0-3.0-0.0","765","<div><div style=""""><a style=""white-space:pre-wrap;""> while a >= 6:
   a = average(a,4)</a><a style=""""></a></div></div>","backspace","","1","","","backspace",""
"","html-keyboard-response","381","1006763","0.0-11.0-8.0-0.0-0.0","2157","<div><div style=""""><a style=""white-space:pre-wrap;""> while a >= 3:
   a *= 3
   a -= 11</a><a style=""""></a></div></div>","15","","1","","","15","0"
"","html-keyboard-response","382","1008072","0.0-11.0-8.0-1.0-0.0","803","<div><div style=""""><a style=""white-space:pre-wrap;""> while a >= 3:
   a *= 3
   a -= 11</a><a style=""""></a></div></div>","4","","1","","","4","1"
"","html-keyboard-response","383","1012395","0.0-11.0-8.0-2.0-0.0","3809","<div><div style=""""><a style=""white-space:pre-wrap;""> while a >= 3:
   a *= 3
   a -= 11</a><a style=""""></a></div></div>","12","","1","","","12","2"
"","html-keyboard-response","384","1013236","0.0-11.0-8.0-3.0-0.0","326","<div><div style=""""><a style=""white-space:pre-wrap;""> while a >= 3:
   a *= 3
   a -= 11</a><a style=""""></a></div></div>","1","","1","","","1","3"
"","html-keyboard-response","385","1013962","0.0-11.0-8.0-4.0-0.0","216","<div><div style=""""><a style=""white-space:pre-wrap;""> while a >= 3:
   a *= 3
   a -= 11</a><a style=""""></a></div></div>","backspace","","1","","","backspace",""
"","html-keyboard-response","386","1016062","0.0-11.0-9.0-0.0-0.0","1592","<div><div style=""""><a style=""white-space:pre-wrap;""> while a <= 7:
   a *= 6
   a /= 2</a><a style=""""></a></div></div>","6","","1","","","6","0"
"","html-keyboard-response","387","1017145","0.0-11.0-9.0-1.0-0.0","574","<div><div style=""""><a style=""white-space:pre-wrap;""> while a <= 7:
   a *= 6
   a /= 2</a><a style=""""></a></div></div>","3","","1","","","3","1"
"","html-keyboard-response","388","1018949","0.0-11.0-9.0-2.0-0.0","1301","<div><div style=""""><a style=""white-space:pre-wrap;""> while a <= 7:
   a *= 6
   a /= 2</a><a style=""""></a></div></div>","18","","1","","","18","2"
"","html-keyboard-response","389","1021845","0.0-11.0-9.0-3.0-0.0","2394","<div><div style=""""><a style=""white-space:pre-wrap;""> while a <= 7:
   a *= 6
   a /= 2</a><a style=""""></a></div></div>","9","","1","","","9","3"
"","html-keyboard-response","390","1023938","0.0-11.0-9.0-4.0-0.0","1576","<div><div style=""""><a style=""white-space:pre-wrap;""> while a <= 7:
   a *= 6
   a /= 2</a><a style=""""></a></div></div>","backspace","","1","","","backspace",""
"","html-keyboard-response","391","1026398","0.0-11.0-10.0-0.0-0.0","1950","<div><div style=""""><a style=""white-space:pre-wrap;""> for i in [1, 2]:
   a -= 2</a><a style=""""></a></div></div>","7","","1","","","7","0"
"","html-keyboard-response","392","1027297","0.0-11.0-10.0-1.0-0.0","392","<div><div style=""""><a style=""white-space:pre-wrap;""> for i in [1, 2]:
   a -= 2</a><a style=""""></a></div></div>","5","","1","","","5","1"
"","html-keyboard-response","393","1028185","0.0-11.0-10.0-2.0-0.0","379","<div><div style=""""><a style=""white-space:pre-wrap;""> for i in [1, 2]:
   a -= 2</a><a style=""""></a></div></div>","backspace","","1","","","backspace",""
"","html-keyboard-response","394","1031495","0.0-11.0-11.0-0.0-0.0","2801","<div><div style=""""><a style=""white-space:pre-wrap;""> for i in [1, 2]:
   a += 9
   a /= 2</a><a style=""""></a></div></div>","14","","1","","","14","0"
"","html-keyboard-response","395","1032475","0.0-11.0-11.0-1.0-0.0","473","<div><div style=""""><a style=""white-space:pre-wrap;""> for i in [1, 2]:
   a += 9
   a /= 2</a><a style=""""></a></div></div>","7","","1","","","7","1"
"","html-keyboard-response","396","1035795","0.0-11.0-11.0-2.0-0.0","2815","<div><div style=""""><a style=""white-space:pre-wrap;""> for i in [1, 2]:
   a += 9
   a /= 2</a><a style=""""></a></div></div>","16","","1","","","16","2"
"","html-keyboard-response","397","1036874","0.0-11.0-11.0-3.0-0.0","572","<div><div style=""""><a style=""white-space:pre-wrap;""> for i in [1, 2]:
   a += 9
   a /= 2</a><a style=""""></a></div></div>","8","","1","","","8","3"
"","html-keyboard-response","398","1038460","0.0-11.0-11.0-4.0-0.0","1070","<div><div style=""""><a style=""white-space:pre-wrap;""> for i in [1, 2]:
   a += 9
   a /= 2</a><a style=""""></a></div></div>","backspace","","1","","","backspace",""
"","html-keyboard-response","399","1040232","0.0-12.0-1.0","1266","<p style=""font-size: 25px;"">Please press space to start the next program<br>>>>>>></p>"," ","","","","","",""
"","html-keyboard-response","400","1041290","0.0-12.0-2.0","1057","<div><div style="" font-size:25px; color:green;""><a style=""white-space:pre-wrap;""> a = 7</a><a style=""""></a></div></div>","","null","","1","a = 7","",""
"","html-keyboard-response","401","1043316","0.0-12.0-4.0-0.0-0.0","1520","<div><div style=""""><a style=""white-space:pre-wrap;""> while a <= 14:
   a *= 2
   a -= 4</a><a style=""""></a></div></div>","14","","1","","","14","0"
"","html-keyboard-response","402","1044270","0.0-12.0-4.0-1.0-0.0","445","<div><div style=""""><a style=""white-space:pre-wrap;""> while a <= 14:
   a *= 2
   a -= 4</a><a style=""""></a></div></div>","10","","1","","","10","1"
"","html-keyboard-response","403","1047626","0.0-12.0-4.0-2.0-0.0","2850","<div><div style=""""><a style=""white-space:pre-wrap;""> while a <= 14:
   a *= 2
   a -= 4</a><a style=""""></a></div></div>","20","","1","","","20","2"
"","html-keyboard-response","404","1048294","0.0-12.0-4.0-3.0-0.0","159","<div><div style=""""><a style=""white-space:pre-wrap;""> while a <= 14:
   a *= 2
   a -= 4</a><a style=""""></a></div></div>","16","","1","","","16","3"
"","html-keyboard-response","405","1049120","0.0-12.0-4.0-4.0-0.0","309","<div><div style=""""><a style=""white-space:pre-wrap;""> while a <= 14:
   a *= 2
   a -= 4</a><a style=""""></a></div></div>","backspace","","1","","","backspace",""
"","html-keyboard-response","406","1050983","0.0-12.0-5.0-0.0-0.0","1353","<div><div style=""""><a style=""white-space:pre-wrap;""> while a >= 3:
   a /= 4
   a *= 2</a><a style=""""></a></div></div>","4","","1","","","4","0"
"","html-keyboard-response","407","1052683","0.0-12.0-5.0-1.0-0.0","1190","<div><div style=""""><a style=""white-space:pre-wrap;""> while a >= 3:
   a /= 4
   a *= 2</a><a style=""""></a></div></div>","8","","1","","","8","1"
"","html-keyboard-response","408","1055834","0.0-12.0-5.0-2.0-0.0","2648","<div><div style=""""><a style=""white-space:pre-wrap;""> while a >= 3:
   a /= 4
   a *= 2</a><a style=""""></a></div></div>","2","","1","","","2","2"
"","html-keyboard-response","409","1057751","0.0-12.0-5.0-3.0-0.0","1401","<div><div style=""""><a style=""white-space:pre-wrap;""> while a >= 3:
   a /= 4
   a *= 2</a><a style=""""></a></div></div>","4","","1","","","4","3"
"","html-keyboard-response","410","1059071","0.0-12.0-5.0-4.0-0.0","804","<div><div style=""""><a style=""white-space:pre-wrap;""> while a >= 3:
   a /= 4
   a *= 2</a><a style=""""></a></div></div>","1","","1","","","1","4"
"","html-keyboard-response","411","1059881","0.0-12.0-5.0-5.0-0.0","302","<div><div style=""""><a style=""white-space:pre-wrap;""> while a >= 3:
   a /= 4
   a *= 2</a><a style=""""></a></div></div>","2","","1","","","2","5"
"","html-keyboard-response","412","1060725","0.0-12.0-5.0-6.0-0.0","330","<div><div style=""""><a style=""white-space:pre-wrap;""> while a >= 3:
   a /= 4
   a *= 2</a><a style=""""></a></div></div>","backspace","","1","","","backspace",""
"","html-keyboard-response","413","1063366","0.0-12.0-6.0-0.0-0.0","2137","<div><div style=""""><a style=""white-space:pre-wrap;""> for i in [1, 2]:
   a = round_up(a*2.5)</a><a style=""""></a></div></div>","5","","1","","","5","0"
"","html-keyboard-response","414","1068439","0.0-12.0-6.0-1.0-0.0","4571","<div><div style=""""><a style=""white-space:pre-wrap;""> for i in [1, 2]:
   a = round_up(a*2.5)</a><a style=""""></a></div></div>","13","","1","","","13","1"
"","html-keyboard-response","415","1069452","0.0-12.0-6.0-2.0-0.0","505","<div><div style=""""><a style=""white-space:pre-wrap;""> for i in [1, 2]:
   a = round_up(a*2.5)</a><a style=""""></a></div></div>","backspace","","1","","","backspace",""
"","html-keyboard-response","416","1074726","0.0-12.0-7.0-0.0-0.0","4764","<div><div style=""""><a style=""white-space:pre-wrap;""> while a >= 7:
   a = average(a,5)</a><a style=""""></a></div></div>","9","","1","","","9","0"
"","html-keyboard-response","417","1077731","0.0-12.0-7.0-1.0-0.0","2494","<div><div style=""""><a style=""white-space:pre-wrap;""> while a >= 7:
   a = average(a,5)</a><a style=""""></a></div></div>","7","","1","","","7","1"
"","html-keyboard-response","418","1079968","0.0-12.0-7.0-2.0-0.0","1728","<div><div style=""""><a style=""white-space:pre-wrap;""> while a >= 7:
   a = average(a,5)</a><a style=""""></a></div></div>","6","","1","","","6","2"
"","html-keyboard-response","419","1080958","0.0-12.0-7.0-3.0-0.0","487","<div><div style=""""><a style=""white-space:pre-wrap;""> while a >= 7:
   a = average(a,5)</a><a style=""""></a></div></div>","backspace","","1","","","backspace",""
"","html-keyboard-response","420","1082805","0.0-12.0-8.0-0.0-0.0","1337","<div><div style=""""><a style=""white-space:pre-wrap;""> for i in [1, 2]:
   a += 2
   a /= 2</a><a style=""""></a></div></div>","8","","1","","","8","0"
"","html-keyboard-response","421","1083866","0.0-12.0-8.0-1.0-0.0","555","<div><div style=""""><a style=""white-space:pre-wrap;""> for i in [1, 2]:
   a += 2
   a /= 2</a><a style=""""></a></div></div>","4","","1","","","4","1"
"","html-keyboard-response","422","1086650","0.0-12.0-8.0-2.0-0.0","2281","<div><div style=""""><a style=""white-space:pre-wrap;""> for i in [1, 2]:
   a += 2
   a /= 2</a><a style=""""></a></div></div>","6","","1","","","6","2"
"","html-keyboard-response","423","1087406","0.0-12.0-8.0-3.0-0.0","240","<div><div style=""""><a style=""white-space:pre-wrap;""> for i in [1, 2]:
   a += 2
   a /= 2</a><a style=""""></a></div></div>","3","","1","","","3","3"
"","html-keyboard-response","424","1088605","0.0-12.0-8.0-4.0-0.0","685","<div><div style=""""><a style=""white-space:pre-wrap;""> for i in [1, 2]:
   a += 2
   a /= 2</a><a style=""""></a></div></div>","backspace","","1","","","backspace",""
"","html-keyboard-response","425","1091286","0.0-12.0-9.0-0.0-0.0","2167","<div><div style=""""><a style=""white-space:pre-wrap;""> for i in [1, 2]:
   a *= 2</a><a style=""""></a></div></div>","6","","1","","","6","0"
"","html-keyboard-response","426","1092470","0.0-12.0-9.0-1.0-0.0","672","<div><div style=""""><a style=""white-space:pre-wrap;""> for i in [1, 2]:
   a *= 2</a><a style=""""></a></div></div>","12","","1","","","12","1"
"","html-keyboard-response","427","1093627","0.0-12.0-9.0-2.0-0.0","650","<div><div style=""""><a style=""white-space:pre-wrap;""> for i in [1, 2]:
   a *= 2</a><a style=""""></a></div></div>","backspace","","1","","","backspace",""
"","html-keyboard-response","428","1096019","0.0-12.0-10.0-0.0-0.0","1876","<div><div style=""""><a style=""white-space:pre-wrap;""> while a <= 14:
   a += 6
   a -= 4</a><a style=""""></a></div></div>","18","","1","","","18","0"
"","html-keyboard-response","429","1097143","0.0-12.0-10.0-1.0-0.0","609","<div><div style=""""><a style=""white-space:pre-wrap;""> while a <= 14:
   a += 6
   a -= 4</a><a style=""""></a></div></div>","14","","1","","","14","1"
"","html-keyboard-response","430","1099959","0.0-12.0-10.0-2.0-0.0","2307","<div><div style=""""><a style=""white-space:pre-wrap;""> while a <= 14:
   a += 6
   a -= 4</a><a style=""""></a></div></div>","20","","1","","","20","2"
"","html-keyboard-response","431","1103012","0.0-12.0-10.0-3.0-0.0","2539","<div><div style=""""><a style=""white-space:pre-wrap;""> while a <= 14:
   a += 6
   a -= 4</a><a style=""""></a></div></div>","16","","1","","","16","3"
"","html-keyboard-response","432","1104157","0.0-12.0-10.0-4.0-0.0","628","<div><div style=""""><a style=""white-space:pre-wrap;""> while a <= 14:
   a += 6
   a -= 4</a><a style=""""></a></div></div>","backspace","","1","","","backspace",""
"","html-keyboard-response","433","1107004","0.0-12.0-11.0-0.0-0.0","2334","<div><div style=""""><a style=""white-space:pre-wrap;""> while a >= 6:
   a -= 3</a><a style=""""></a></div></div>","13","","1","","","13","0"
"","html-keyboard-response","434","1109935","0.0-12.0-11.0-1.0-0.0","2427","<div><div style=""""><a style=""white-space:pre-wrap;""> while a >= 6:
   a -= 3</a><a style=""""></a></div></div>","10","","1","","","10","1"
"","html-keyboard-response","435","1110892","0.0-12.0-11.0-2.0-0.0","446","<div><div style=""""><a style=""white-space:pre-wrap;""> while a >= 6:
   a -= 3</a><a style=""""></a></div></div>","7","","1","","","7","2"
"","html-keyboard-response","436","1113416","0.0-12.0-11.0-3.0-0.0","2020","<div><div style=""""><a style=""white-space:pre-wrap;""> while a >= 6:
   a -= 3</a><a style=""""></a></div></div>","4","","1","","","4","3"
"","html-keyboard-response","437","1114219","0.0-12.0-11.0-4.0-0.0","300","<div><div style=""""><a style=""white-space:pre-wrap;""> while a >= 6:
   a -= 3</a><a style=""""></a></div></div>","backspace","","1","","","backspace",""
"","html-keyboard-response","438","1237727","0.0-13.0-0.0-0.0","122994","<p style=""position:absolute; top:30%; font-size:25px; color:green;"" >Take a short break now</p>"," ","","","","","",""
"","html-keyboard-response","439","1238543","0.0-13.0-1.0","814","<p style=""font-size: 25px;"">Please press space to start the next program<br>>>>>>></p>"," ","","","","","",""
"","html-keyboard-response","440","1239471","0.0-13.0-2.0","927","<div><div style="" font-size:25px; color:green;""><a style=""white-space:pre-wrap;""> a = 11</a><a style=""""></a></div></div>","","null","","55","a = 11","",""
"","html-keyboard-response","441","1241776","0.0-13.0-4.0-0.0-0.0","1789","<div><div style=""""><a style=""white-space:pre-wrap;""> for i in [1, 2]:
   a += 4
   a /= 3</a><a style=""""></a></div></div>","15","","1","","","15","0"
"","html-keyboard-response","442","1242599","0.0-13.0-4.0-1.0-0.0","318","<div><div style=""""><a style=""white-space:pre-wrap;""> for i in [1, 2]:
   a += 4
   a /= 3</a><a style=""""></a></div></div>","5","","1","","","5","1"
"","html-keyboard-response","443","1243998","0.0-13.0-4.0-2.0-0.0","883","<div><div style=""""><a style=""white-space:pre-wrap;""> for i in [1, 2]:
   a += 4
   a /= 3</a><a style=""""></a></div></div>","9","","1","","","9","2"
