"success","trial_type","trial_index","time_elapsed","internal_node_id","rt","stimulus","response","expected_response","correct","uid","text1","correct_response","loop_step"
"true","fullscreen","0","2769","0.0-0.0","","","","","","","","",""
"","html-keyboard-response","1","7337","0.0-1.0","4564","Please make sure that your keyboard is in English mode. Press 'A' to continue","a","","","","","",""
"","html-keyboard-response","2","8560","0.0-2.0-1.0","1220","<p style=""font-size: 25px;"">Please press space to start the next program<br>>>>>>></p>"," ","","","","","",""
"","html-keyboard-response","3","9832","0.0-2.0-2.0","1270","<div><div style="" font-size:25px; color:green;""><a style=""white-space:pre-wrap;""> a = 7</a><a style=""""></a></div></div>","","null","","1","a = 7","",""
"","html-keyboard-response","4","14360","0.0-2.0-4.0-0.0-0.0","4024","<div><div style=""""><a style=""white-space:pre-wrap;""> while a <= 14:
   a *= 2
   a -= 4</a><a style=""""></a></div></div>","14","14","1","2","while a <= 14:
   a *= 2
   a -= 4","14","0"
"","html-keyboard-response","5","15864","0.0-2.0-4.0-1.0-0.0","990","<div><div style=""""><a style=""white-space:pre-wrap;""> while a <= 14:
   a *= 2
   a -= 4</a><a style=""""></a></div></div>","10","10","1","2","while a <= 14:
   a *= 2
   a -= 4","10","1"
"","html-keyboard-response","6","19256","0.0-2.0-4.0-2.0-0.0","2881","<div><div style=""""><a style=""white-space:pre-wrap;""> while a <= 14:
   a *= 2
   a -= 4</a><a style=""""></a></div></div>","20","20","1","2","while a <= 14:
   a *= 2
   a -= 4","20","2"
"","html-keyboard-response","7","21560","0.0-2.0-4.0-3.0-0.0","1790","<div><div style=""""><a style=""white-space:pre-wrap;""> while a <= 14:
   a *= 2
   a -= 4</a><a style=""""></a></div></div>","16","16","1","2","while a <= 14:
   a *= 2
   a -= 4","16","3"
"","html-keyboard-response","8","30512","0.0-2.0-4.0-4.0-0.0","8435","<div><div style=""""><a style=""white-space:pre-wrap;""> while a <= 14:
   a *= 2
   a -= 4</a><a style=""""></a></div></div>","backspace","backspace","1","2","while a <= 14:
   a *= 2
   a -= 4","backspace","4"
"","html-keyboard-response","9","35665","0.0-2.0-5.0-0.0-0.0","4639","<div><div style=""""><a style=""white-space:pre-wrap;""> while a >= 3:
   a /= 4
   a *= 2</a><a style=""""></a></div></div>","4","4","1","3","while a >= 3:
   a /= 4
   a *= 2","4","0"
"","html-keyboard-response","10","37144","0.0-2.0-5.0-1.0-0.0","976","<div><div style=""""><a style=""white-space:pre-wrap;""> while a >= 3:
   a /= 4
   a *= 2</a><a style=""""></a></div></div>","8","8","1","3","while a >= 3:
   a /= 4
   a *= 2","8","1"
"","html-keyboard-response","11","39512","0.0-2.0-5.0-2.0-0.0","1864","<div><div style=""""><a style=""white-space:pre-wrap;""> while a >= 3:
   a /= 4
   a *= 2</a><a style=""""></a></div></div>","2","2","1","3","while a >= 3:
   a /= 4
   a *= 2","2","2"
"","html-keyboard-response","12","42288","0.0-2.0-5.0-3.0-0.0","2274","<div><div style=""""><a style=""white-space:pre-wrap;""> while a >= 3:
   a /= 4
   a *= 2</a><a style=""""></a></div></div>","4","4","1","3","while a >= 3:
   a /= 4
   a *= 2","4","3"
"","html-keyboard-response","13","43208","0.0-2.0-5.0-4.0-0.0","415","<div><div style=""""><a style=""white-space:pre-wrap;""> while a >= 3:
   a /= 4
   a *= 2</a><a style=""""></a></div></div>","1","1","1","3","while a >= 3:
   a /= 4
   a *= 2","1","4"
"","html-keyboard-response","14","44056","0.0-2.0-5.0-5.0-0.0","337","<div><div style=""""><a style=""white-space:pre-wrap;""> while a >= 3:
   a /= 4
   a *= 2</a><a style=""""></a></div></div>","2","2","1","3","while a >= 3:
   a /= 4
   a *= 2","2","5"
"","html-keyboard-response","15","45224","0.0-2.0-5.0-6.0-0.0","651","<div><div style=""""><a style=""white-space:pre-wrap;""> while a >= 3:
   a /= 4
   a *= 2</a><a style=""""></a></div></div>","backspace","backspace","1","3","while a >= 3:
   a /= 4
   a *= 2","backspace","6"
"","html-keyboard-response","16","51169","0.0-2.0-6.0-0.0-0.0","5428","<div><div style=""""><a style=""white-space:pre-wrap;""> for i in [1, 2]:
   a = round_up(a*2.5)</a><a style=""""></a></div></div>","5","5","1","4","for i in [1, 2]:
   a = round_up(a*2.5)","5","0"
"","html-keyboard-response","17","63025","0.0-2.0-6.0-1.0-0.0","11346","<div><div style=""""><a style=""white-space:pre-wrap;""> for i in [1, 2]:
   a = round_up(a*2.5)</a><a style=""""></a></div></div>","13","13","1","4","for i in [1, 2]:
   a = round_up(a*2.5)","13","1"
"","html-keyboard-response","18","63896","0.0-2.0-6.0-2.0-0.0","367","<div><div style=""""><a style=""white-space:pre-wrap;""> for i in [1, 2]:
   a = round_up(a*2.5)</a><a style=""""></a></div></div>","backspace","backspace","1","4","for i in [1, 2]:
   a = round_up(a*2.5)","backspace","2"
"","html-keyboard-response","19","71152","0.0-2.0-7.0-0.0-0.0","6744","<div><div style=""""><a style=""white-space:pre-wrap;""> while a >= 7:
   a = average(a,5)</a><a style=""""></a></div></div>","9","9","1","5","while a >= 7:
   a = average(a,5)","9","0"
"","html-keyboard-response","20","73369","0.0-2.0-7.0-1.0-0.0","1712","<div><div style=""""><a style=""white-space:pre-wrap;""> while a >= 7:
   a = average(a,5)</a><a style=""""></a></div></div>","7","7","1","5","while a >= 7:
   a = average(a,5)","7","1"
"","html-keyboard-response","21","76288","0.0-2.0-7.0-2.0-0.0","2416","<div><div style=""""><a style=""white-space:pre-wrap;""> while a >= 7:
   a = average(a,5)</a><a style=""""></a></div></div>","6","6","1","5","while a >= 7:
   a = average(a,5)","6","2"
"","html-keyboard-response","22","77152","0.0-2.0-7.0-3.0-0.0","352","<div><div style=""""><a style=""white-space:pre-wrap;""> while a >= 7:
   a = average(a,5)</a><a style=""""></a></div></div>","backspace","backspace","1","5","while a >= 7:
   a = average(a,5)","backspace","3"
"","html-keyboard-response","23","81449","0.0-2.0-8.0-0.0-0.0","3791","<div><div style=""""><a style=""white-space:pre-wrap;""> for i in [1, 2]:
   a += 2
   a /= 2</a><a style=""""></a></div></div>","8","8","1","6","for i in [1, 2]:
   a += 2
   a /= 2","8","0"
"","html-keyboard-response","24","82321","0.0-2.0-8.0-1.0-0.0","354","<div><div style=""""><a style=""white-space:pre-wrap;""> for i in [1, 2]:
   a += 2
   a /= 2</a><a style=""""></a></div></div>","4","4","1","6","for i in [1, 2]:
   a += 2
   a /= 2","4","1"
"","html-keyboard-response","25","85745","0.0-2.0-8.0-2.0-0.0","2910","<div><div style=""""><a style=""white-space:pre-wrap;""> for i in [1, 2]:
   a += 2
   a /= 2</a><a style=""""></a></div></div>","6","6","1","6","for i in [1, 2]:
   a += 2
   a /= 2","6","2"
"","html-keyboard-response","26","86616","0.0-2.0-8.0-3.0-0.0","354","<div><div style=""""><a style=""white-space:pre-wrap;""> for i in [1, 2]:
   a += 2
   a /= 2</a><a style=""""></a></div></div>","3","3","1","6","for i in [1, 2]:
   a += 2
   a /= 2","3","3"
"","html-keyboard-response","27","87785","0.0-2.0-8.0-4.0-0.0","664","<div><div style=""""><a style=""white-space:pre-wrap;""> for i in [1, 2]:
   a += 2
   a /= 2</a><a style=""""></a></div></div>","backspace","backspace","1","6","for i in [1, 2]:
   a += 2
   a /= 2","backspace","4"
"","html-keyboard-response","28","92321","0.0-2.0-9.0-0.0-0.0","4032","<div><div style=""""><a style=""white-space:pre-wrap;""> for i in [1, 2]:
   a *= 2</a><a style=""""></a></div></div>","6","6","1","7","for i in [1, 2]:
   a *= 2","6","0"
"","html-keyboard-response","29","94353","0.0-2.0-9.0-1.0-0.0","1521","<div><div style=""""><a style=""white-space:pre-wrap;""> for i in [1, 2]:
   a *= 2</a><a style=""""></a></div></div>","12","12","1","7","for i in [1, 2]:
   a *= 2","12","1"
"","html-keyboard-response","30","95537","0.0-2.0-9.0-2.0-0.0","680","<div><div style=""""><a style=""white-space:pre-wrap;""> for i in [1, 2]:
   a *= 2</a><a style=""""></a></div></div>","backspace","backspace","1","7","for i in [1, 2]:
   a *= 2","backspace","2"
"","html-keyboard-response","31","99409","0.0-2.0-10.0-0.0-0.0","3355","<div><div style=""""><a style=""white-space:pre-wrap;""> while a <= 14:
   a += 6
   a -= 4</a><a style=""""></a></div></div>","18","18","1","8","while a <= 14:
   a += 6
   a -= 4","18","0"
"","html-keyboard-response","32","101424","0.0-2.0-10.0-1.0-0.0","1509","<div><div style=""""><a style=""white-space:pre-wrap;""> while a <= 14:
   a += 6
   a -= 4</a><a style=""""></a></div></div>","14","14","1","8","while a <= 14:
   a += 6
   a -= 4","14","1"
"","html-keyboard-response","33","104873","0.0-2.0-10.0-2.0-0.0","2937","<div><div style=""""><a style=""white-space:pre-wrap;""> while a <= 14:
   a += 6
   a -= 4</a><a style=""""></a></div></div>","20","20","1","8","while a <= 14:
   a += 6
   a -= 4","20","2"
"","html-keyboard-response","34","106233","0.0-2.0-10.0-3.0-0.0","852","<div><div style=""""><a style=""white-space:pre-wrap;""> while a <= 14:
   a += 6
   a -= 4</a><a style=""""></a></div></div>","16","16","1","8","while a <= 14:
   a += 6
   a -= 4","16","3"
"","html-keyboard-response","35","108048","0.0-2.0-10.0-4.0-0.0","1301","<div><div style=""""><a style=""white-space:pre-wrap;""> while a <= 14:
   a += 6
   a -= 4</a><a style=""""></a></div></div>","backspace","backspace","1","8","while a <= 14:
   a += 6
   a -= 4","backspace","4"
"","html-keyboard-response","36","112345","0.0-2.0-11.0-0.0-0.0","3790","<div><div style=""""><a style=""white-space:pre-wrap;""> while a >= 6:
   a -= 3</a><a style=""""></a></div></div>","13","13","1","9","while a >= 6:
   a -= 3","13","0"
"","html-keyboard-response","37","113744","0.0-2.0-11.0-1.0-0.0","894","<div><div style=""""><a style=""white-space:pre-wrap;""> while a >= 6:
   a -= 3</a><a style=""""></a></div></div>","10","10","1","9","while a >= 6:
   a -= 3","10","1"
"","html-keyboard-response","38","116424","0.0-2.0-11.0-2.0-0.0","2174","<div><div style=""""><a style=""white-space:pre-wrap;""> while a >= 6:
   a -= 3</a><a style=""""></a></div></div>","7","7","1","9","while a >= 6:
   a -= 3","7","2"
"","html-keyboard-response","39","117904","0.0-2.0-11.0-3.0-0.0","972","<div><div style=""""><a style=""white-space:pre-wrap;""> while a >= 6:
   a -= 3</a><a style=""""></a></div></div>","4","4","1","9","while a >= 6:
   a -= 3","4","3"
"","html-keyboard-response","40","118984","0.0-2.0-11.0-4.0-0.0","568","<div><div style=""""><a style=""white-space:pre-wrap;""> while a >= 6:
   a -= 3</a><a style=""""></a></div></div>","backspace","backspace","1","9","while a >= 6:
   a -= 3","backspace","4"
"","html-keyboard-response","41","150281","0.0-3.0-1.0","30787","<p style=""font-size: 25px;"">Please press space to start the next program<br>>>>>>></p>"," ","","","","","",""
"","html-keyboard-response","42","152480","0.0-3.0-2.0","2198","<div><div style="" font-size:25px; color:green;""><a style=""white-space:pre-wrap;""> a = 8</a><a style=""""></a></div></div>","","null","","37","a = 8","",""
"","html-keyboard-response","43","155951","0.0-3.0-4.0-0.0-0.0","2960","<div><div style=""""><a style=""white-space:pre-wrap;""> while a <= 17:
   a -= 2
   a += 6</a><a style=""""></a></div></div>","6","6","1","38","while a <= 17:
   a -= 2
   a += 6","6","0"
"","html-keyboard-response","44","157968","0.0-3.0-4.0-1.0-0.0","1506","<div><div style=""""><a style=""white-space:pre-wrap;""> while a <= 17:
   a -= 2
   a += 6</a><a style=""""></a></div></div>","12","12","1","38","while a <= 17:
   a -= 2
   a += 6","12","1"
"","html-keyboard-response","45","162033","0.0-3.0-4.0-2.0-0.0","3561","<div><div style=""""><a style=""white-space:pre-wrap;""> while a <= 17:
   a -= 2
   a += 6</a><a style=""""></a></div></div>","10","10","1","38","while a <= 17:
   a -= 2
   a += 6","10","2"
"","html-keyboard-response","46","164561","0.0-3.0-4.0-3.0-0.0","2018","<div><div style=""""><a style=""white-space:pre-wrap;""> while a <= 17:
   a -= 2
   a += 6</a><a style=""""></a></div></div>","16","16","1","38","while a <= 17:
   a -= 2
   a += 6","16","3"
"","html-keyboard-response","47","166592","0.0-3.0-4.0-4.0-0.0","1522","<div><div style=""""><a style=""white-space:pre-wrap;""> while a <= 17:
   a -= 2
   a += 6</a><a style=""""></a></div></div>","14","14","1","38","while a <= 17:
   a -= 2
   a += 6","14","4"
"","html-keyboard-response","48","168392","0.0-3.0-4.0-5.0-0.0","1285","<div><div style=""""><a style=""white-space:pre-wrap;""> while a <= 17:
   a -= 2
   a += 6</a><a style=""""></a></div></div>","20","20","1","38","while a <= 17:
   a -= 2
   a += 6","20","5"
"","html-keyboard-response","49","169232","0.0-3.0-4.0-6.0-0.0","330","<div><div style=""""><a style=""white-space:pre-wrap;""> while a <= 17:
   a -= 2
   a += 6</a><a style=""""></a></div></div>","backspace","backspace","1","38","while a <= 17:
   a -= 2
   a += 6","backspace","6"
"","html-keyboard-response","50","172553","0.0-3.0-5.0-0.0-0.0","2807","<div><div style=""""><a style=""white-space:pre-wrap;""> for i in [1, 2]:
   a /= 2</a><a style=""""></a></div></div>","10","10","1","39","for i in [1, 2]:
   a /= 2","10","0"
"","html-keyboard-response","51","173568","0.0-3.0-5.0-1.0-0.0","504","<div><div style=""""><a style=""white-space:pre-wrap;""> for i in [1, 2]:
   a /= 2</a><a style=""""></a></div></div>","5","5","1","39","for i in [1, 2]:
   a /= 2","5","1"
"","html-keyboard-response","52","174432","0.0-3.0-5.0-2.0-0.0","355","<div><div style=""""><a style=""white-space:pre-wrap;""> for i in [1, 2]:
   a /= 2</a><a style=""""></a></div></div>","backspace","backspace","1","39","for i in [1, 2]:
   a /= 2","backspace","2"
"","html-keyboard-response","53","182345","0.0-3.0-6.0-0.0-0.0","7409","<div><div style=""""><a style=""white-space:pre-wrap;""> for i in [1, 2, 3]:
   a = round_up(a*1.5)</a><a style=""""></a></div></div>","8","8","1","40","for i in [1, 2, 3]:
   a = round_up(a*1.5)","8","0"
"","html-keyboard-response","54","188281","0.0-3.0-6.0-1.0-0.0","5422","<div><div style=""""><a style=""white-space:pre-wrap;""> for i in [1, 2, 3]:
   a = round_up(a*1.5)</a><a style=""""></a></div></div>","12","12","1","40","for i in [1, 2, 3]:
   a = round_up(a*1.5)","12","1"
"","html-keyboard-response","55","193384","0.0-3.0-6.0-2.0-0.0","4589","<div><div style=""""><a style=""white-space:pre-wrap;""> for i in [1, 2, 3]:
   a = round_up(a*1.5)</a><a style=""""></a></div></div>","18","18","1","40","for i in [1, 2, 3]:
   a = round_up(a*1.5)","18","2"
"","html-keyboard-response","56","194432","0.0-3.0-6.0-3.0-0.0","544","<div><div style=""""><a style=""white-space:pre-wrap;""> for i in [1, 2, 3]:
   a = round_up(a*1.5)</a><a style=""""></a></div></div>","backspace","backspace","1","40","for i in [1, 2, 3]:
   a = round_up(a*1.5)","backspace","3"
"","html-keyboard-response","57","199041","0.0-3.0-7.0-0.0-0.0","4090","<div><div style=""""><a style=""white-space:pre-wrap;""> for i in [1, 2, 3, 4]:
   a = average(a,2)</a><a style=""""></a></div></div>","10","10","1","41","for i in [1, 2, 3, 4]:
   a = average(a,2)","10","0"
"","html-keyboard-response","58","203512","0.0-3.0-7.0-1.0-0.0","3965","<div><div style=""""><a style=""white-space:pre-wrap;""> for i in [1, 2, 3, 4]:
   a = average(a,2)</a><a style=""""></a></div></div>","6","6","1","41","for i in [1, 2, 3, 4]:
   a = average(a,2)","6","1"
"","html-keyboard-response","59","206080","0.0-3.0-7.0-2.0-0.0","2057","<div><div style=""""><a style=""white-space:pre-wrap;""> for i in [1, 2, 3, 4]:
   a = average(a,2)</a><a style=""""></a></div></div>","4","4","1","41","for i in [1, 2, 3, 4]:
   a = average(a,2)","4","2"
"","html-keyboard-response","60","208592","0.0-3.0-7.0-3.0-0.0","2001","<div><div style=""""><a style=""white-space:pre-wrap;""> for i in [1, 2, 3, 4]:
   a = average(a,2)</a><a style=""""></a></div></div>","3","3","1","41","for i in [1, 2, 3, 4]:
   a = average(a,2)","3","3"
"","html-keyboard-response","61","209593","0.0-3.0-7.0-4.0-0.0","492","<div><div style=""""><a style=""white-space:pre-wrap;""> for i in [1, 2, 3, 4]:
   a = average(a,2)</a><a style=""""></a></div></div>","backspace","backspace","1","41","for i in [1, 2, 3, 4]:
   a = average(a,2)","backspace","4"
"","html-keyboard-response","62","215081","0.0-3.0-8.0-0.0-0.0","4977","<div><div style=""""><a style=""white-space:pre-wrap;""> while a <= 5:
   a += 7
   a /= 2</a><a style=""""></a></div></div>","10","10","1","42","while a <= 5:
   a += 7
   a /= 2","10","0"
"","html-keyboard-response","63","215880","0.0-3.0-8.0-1.0-0.0","296","<div><div style=""""><a style=""white-space:pre-wrap;""> while a <= 5:
   a += 7
   a /= 2</a><a style=""""></a></div></div>","5","5","1","42","while a <= 5:
   a += 7
   a /= 2","5","1"
"","html-keyboard-response","64","219129","0.0-3.0-8.0-2.0-0.0","2731","<div><div style=""""><a style=""white-space:pre-wrap;""> while a <= 5:
   a += 7
   a /= 2</a><a style=""""></a></div></div>","12","12","1","42","while a <= 5:
   a += 7
   a /= 2","12","2"
"","html-keyboard-response","65","219953","0.0-3.0-8.0-3.0-0.0","312","<div><div style=""""><a style=""white-space:pre-wrap;""> while a <= 5:
   a += 7
   a /= 2</a><a style=""""></a></div></div>","6","6","1","42","while a <= 5:
   a += 7
   a /= 2","6","3"
"","html-keyboard-response","66","221520","0.0-3.0-8.0-4.0-0.0","1053","<div><div style=""""><a style=""white-space:pre-wrap;""> while a <= 5:
   a += 7
   a /= 2</a><a style=""""></a></div></div>","backspace","backspace","1","42","while a <= 5:
   a += 7
   a /= 2","backspace","4"
"","html-keyboard-response","67","224560","0.0-3.0-9.0-0.0-0.0","2532","<div><div style=""""><a style=""white-space:pre-wrap;""> while a <= 15:
   a += 3</a><a style=""""></a></div></div>","9","9","1","43","while a <= 15:
   a += 3","9","0"
"","html-keyboard-response","68","225552","0.0-3.0-9.0-1.0-0.0","475","<div><div style=""""><a style=""white-space:pre-wrap;""> while a <= 15:
   a += 3</a><a style=""""></a></div></div>","12","12","1","43","while a <= 15:
   a += 3","12","1"
"","html-keyboard-response","69","226632","0.0-3.0-9.0-2.0-0.0","575","<div><div style=""""><a style=""white-space:pre-wrap;""> while a <= 15:
   a += 3</a><a style=""""></a></div></div>","15","15","1","43","while a <= 15:
   a += 3","15","2"
"","html-keyboard-response","70","227472","0.0-3.0-9.0-3.0-0.0","322","<div><div style=""""><a style=""white-space:pre-wrap;""> while a <= 15:
   a += 3</a><a style=""""></a></div></div>","18","18","1","43","while a <= 15:
   a += 3","18","3"
"","html-keyboard-response","71","228200","0.0-3.0-9.0-4.0-0.0","225","<div><div style=""""><a style=""white-space:pre-wrap;""> while a <= 15:
   a += 3</a><a style=""""></a></div></div>","backspace","backspace","1","43","while a <= 15:
   a += 3","backspace","4"
"","html-keyboard-response","72","232121","0.0-3.0-10.0-0.0-0.0","3413","<div><div style=""""><a style=""white-space:pre-wrap;""> while a >= 12:
   a /= 3
   a *= 2</a><a style=""""></a></div></div>","6","6","1","44","while a >= 12:
   a /= 3
   a *= 2","6","0"
"","html-keyboard-response","73","233632","0.0-3.0-10.0-1.0-0.0","993","<div><div style=""""><a style=""white-space:pre-wrap;""> while a >= 12:
   a /= 3
   a *= 2</a><a style=""""></a></div></div>","12","12","1","44","while a >= 12:
   a /= 3
   a *= 2","12","1"
"","html-keyboard-response","74","235519","0.0-3.0-10.0-2.0-0.0","1372","<div><div style=""""><a style=""white-space:pre-wrap;""> while a >= 12:
   a /= 3
   a *= 2</a><a style=""""></a></div></div>","4","4","1","44","while a >= 12:
   a /= 3
   a *= 2","4","2"
"","html-keyboard-response","75","237424","0.0-3.0-10.0-3.0-0.0","1387","<div><div style=""""><a style=""white-space:pre-wrap;""> while a >= 12:
   a /= 3
   a *= 2</a><a style=""""></a></div></div>","8","8","1","44","while a >= 12:
   a /= 3
   a *= 2","8","3"
"","html-keyboard-response","76","238568","0.0-3.0-10.0-4.0-0.0","630","<div><div style=""""><a style=""white-space:pre-wrap;""> while a >= 12:
   a /= 3
   a *= 2</a><a style=""""></a></div></div>","backspace","backspace","1","44","while a >= 12:
   a /= 3
   a *= 2","backspace","4"
"","html-keyboard-response","77","245457","0.0-3.0-11.0-0.0-0.0","6384","<div><div style=""""><a style=""white-space:pre-wrap;""> for i in [1, 2, 3]:
   a *= 2
   a -= 9</a><a style=""""></a></div></div>","16","16","1","45","for i in [1, 2, 3]:
   a *= 2
   a -= 9","16","0"
"","html-keyboard-response","78","248640","0.0-3.0-11.0-1.0-0.0","2667","<div><div style=""""><a style=""white-space:pre-wrap;""> for i in [1, 2, 3]:
   a *= 2
   a -= 9</a><a style=""""></a></div></div>","7","7","1","45","for i in [1, 2, 3]:
   a *= 2
   a -= 9","7","1"
"","html-keyboard-response","79","251952","0.0-3.0-11.0-2.0-0.0","2800","<div><div style=""""><a style=""white-space:pre-wrap;""> for i in [1, 2, 3]:
   a *= 2
   a -= 9</a><a style=""""></a></div></div>","14","14","1","45","for i in [1, 2, 3]:
   a *= 2
   a -= 9","14","2"
"","html-keyboard-response","80","253424","0.0-3.0-11.0-3.0-0.0","971","<div><div style=""""><a style=""white-space:pre-wrap;""> for i in [1, 2, 3]:
   a *= 2
   a -= 9</a><a style=""""></a></div></div>","5","5","1","45","for i in [1, 2, 3]:
   a *= 2
   a -= 9","5","3"
"","html-keyboard-response","81","257496","0.0-3.0-11.0-4.0-0.0","3561","<div><div style=""""><a style=""white-space:pre-wrap;""> for i in [1, 2, 3]:
   a *= 2
   a -= 9</a><a style=""""></a></div></div>","10","10","1","45","for i in [1, 2, 3]:
   a *= 2
   a -= 9","10","4"
"","html-keyboard-response","82","259128","0.0-3.0-11.0-5.0-0.0","1125","<div><div style=""""><a style=""white-space:pre-wrap;""> for i in [1, 2, 3]:
   a *= 2
   a -= 9</a><a style=""""></a></div></div>","1","1","1","45","for i in [1, 2, 3]:
   a *= 2
   a -= 9","1","5"
"","html-keyboard-response","83","259944","0.0-3.0-11.0-6.0-0.0","301","<div><div style=""""><a style=""white-space:pre-wrap;""> for i in [1, 2, 3]:
   a *= 2
   a -= 9</a><a style=""""></a></div></div>","backspace","backspace","1","45","for i in [1, 2, 3]:
   a *= 2
   a -= 9","backspace","6"
"","html-keyboard-response","84","262528","0.0-4.0-1.0","2074","<p style=""font-size: 25px;"">Please press space to start the next program<br>>>>>>></p>"," ","","","","","",""
"","html-keyboard-response","85","264304","0.0-4.0-2.0","1774","<div><div style="" font-size:25px; color:green;""><a style=""white-space:pre-wrap;""> a = 9</a><a style=""""></a></div></div>","","null","","100","a = 9","",""
"","html-keyboard-response","86","269681","0.0-4.0-4.0-0.0-0.0","4863","<div><div style=""""><a style=""white-space:pre-wrap;""> while a >= 2:
   a /= 3</a><a style=""""></a></div></div>","3","3","1","101","while a >= 2:
   a /= 3","3","0"
"","html-keyboard-response","87","270896","0.0-4.0-4.0-1.0-0.0","709","<div><div style=""""><a style=""white-space:pre-wrap;""> while a >= 2:
   a /= 3</a><a style=""""></a></div></div>","1","1","1","101","while a >= 2:
   a /= 3","1","1"
"","html-keyboard-response","88","271832","0.0-4.0-4.0-2.0-0.0","428","<div><div style=""""><a style=""white-space:pre-wrap;""> while a >= 2:
   a /= 3</a><a style=""""></a></div></div>","backspace","backspace","1","101","while a >= 2:
   a /= 3","backspace","2"
"","html-keyboard-response","89","274312","0.0-4.0-5.0-0.0-0.0","1969","<div><div style=""""><a style=""white-space:pre-wrap;""> while a <= 16:
   a += 6</a><a style=""""></a></div></div>","7","7","1","102","while a <= 16:
   a += 6","7","0"
"","html-keyboard-response","90","276560","0.0-4.0-5.0-1.0-0.0","1737","<div><div style=""""><a style=""white-space:pre-wrap;""> while a <= 16:
   a += 6</a><a style=""""></a></div></div>","13","13","1","102","while a <= 16:
   a += 6","13","1"
"","html-keyboard-response","91","279264","0.0-4.0-5.0-2.0-0.0","2197","<div><div style=""""><a style=""white-space:pre-wrap;""> while a <= 16:
   a += 6</a><a style=""""></a></div></div>","19","19","1","102","while a <= 16:
   a += 6","19","2"
"","html-keyboard-response","92","280137","0.0-4.0-5.0-3.0-0.0","362","<div><div style=""""><a style=""white-space:pre-wrap;""> while a <= 16:
   a += 6</a><a style=""""></a></div></div>","backspace","backspace","1","102","while a <= 16:
   a += 6","backspace","3"
"","html-keyboard-response","93","283944","0.0-4.0-6.0-0.0-0.0","3298","<div><div style=""""><a style=""white-space:pre-wrap;""> for i in [1, 2]:
   a += 1
   a -= 8</a><a style=""""></a></div></div>","20","20","1","103","for i in [1, 2]:
   a += 1
   a -= 8","20","0"
"","html-keyboard-response","94","286152","0.0-4.0-6.0-1.0-0.0","1697","<div><div style=""""><a style=""white-space:pre-wrap;""> for i in [1, 2]:
   a += 1
   a -= 8</a><a style=""""></a></div></div>","12","12","1","103","for i in [1, 2]:
   a += 1
   a -= 8","12","1"
"","html-keyboard-response","95","289144","0.0-4.0-6.0-2.0-0.0","2477","<div><div style=""""><a style=""white-space:pre-wrap;""> for i in [1, 2]:
   a += 1
   a -= 8</a><a style=""""></a></div></div>","13","13","1","103","for i in [1, 2]:
   a += 1
   a -= 8","13","2"
"","html-keyboard-response","96","290208","0.0-4.0-6.0-3.0-0.0","554","<div><div style=""""><a style=""white-space:pre-wrap;""> for i in [1, 2]:
   a += 1
   a -= 8</a><a style=""""></a></div></div>","5","5","1","103","for i in [1, 2]:
   a += 1
   a -= 8","5","3"
"","html-keyboard-response","97","291023","0.0-4.0-6.0-4.0-0.0","312","<div><div style=""""><a style=""white-space:pre-wrap;""> for i in [1, 2]:
   a += 1
   a -= 8</a><a style=""""></a></div></div>","backspace","backspace","1","103","for i in [1, 2]:
   a += 1
   a -= 8","backspace","4"
"","html-keyboard-response","98","294841","0.0-4.0-7.0-0.0-0.0","3302","<div><div style=""""><a style=""white-space:pre-wrap;""> for i in [1, 2]:
   a *= 3
   a -= 9</a><a style=""""></a></div></div>","15","15","1","104","for i in [1, 2]:
   a *= 3
   a -= 9","15","0"
"","html-keyboard-response","99","296769","0.0-4.0-7.0-1.0-0.0","1411","<div><div style=""""><a style=""white-space:pre-wrap;""> for i in [1, 2]:
   a *= 3
   a -= 9</a><a style=""""></a></div></div>","6","6","1","104","for i in [1, 2]:
   a *= 3
   a -= 9","6","1"
"","html-keyboard-response","100","298601","0.0-4.0-7.0-2.0-0.0","1325","<div><div style=""""><a style=""white-space:pre-wrap;""> for i in [1, 2]:
   a *= 3
   a -= 9</a><a style=""""></a></div></div>","18","18","1","104","for i in [1, 2]:
   a *= 3
   a -= 9","18","2"
"","html-keyboard-response","101","299833","0.0-4.0-7.0-3.0-0.0","718","<div><div style=""""><a style=""white-space:pre-wrap;""> for i in [1, 2]:
   a *= 3
   a -= 9</a><a style=""""></a></div></div>","9","9","1","104","for i in [1, 2]:
   a *= 3
   a -= 9","9","3"
"","html-keyboard-response","102","300713","0.0-4.0-7.0-4.0-0.0","365","<div><div style=""""><a style=""white-space:pre-wrap;""> for i in [1, 2]:
   a *= 3
   a -= 9</a><a style=""""></a></div></div>","backspace","backspace","1","104","for i in [1, 2]:
   a *= 3
   a -= 9","backspace","4"
"","html-keyboard-response","103","306553","0.0-4.0-8.0-0.0-0.0","5329","<div><div style=""""><a style=""white-space:pre-wrap;""> while a >= 3:
   a = average(a, 1)</a><a style=""""></a></div></div>","5","5","1","105","while a >= 3:
   a = average(a, 1)","5","0"
"","html-keyboard-response","104","309217","0.0-4.0-8.0-1.0-0.0","2154","<div><div style=""""><a style=""white-space:pre-wrap;""> while a >= 3:
   a = average(a, 1)</a><a style=""""></a></div></div>","3","3","1","105","while a >= 3:
   a = average(a, 1)","3","1"
"","html-keyboard-response","105","310849","0.0-4.0-8.0-2.0-0.0","1120","<div><div style=""""><a style=""white-space:pre-wrap;""> while a >= 3:
   a = average(a, 1)</a><a style=""""></a></div></div>","2","2","1","105","while a >= 3:
   a = average(a, 1)","2","2"
"","html-keyboard-response","106","311745","0.0-4.0-8.0-3.0-0.0","386","<div><div style=""""><a style=""white-space:pre-wrap;""> while a >= 3:
   a = average(a, 1)</a><a style=""""></a></div></div>","backspace","backspace","1","105","while a >= 3:
   a = average(a, 1)","backspace","3"
"","html-keyboard-response","107","315641","0.0-4.0-9.0-0.0-0.0","3389","<div><div style=""""><a style=""white-space:pre-wrap;""> for i in [1, 2]:
   a -= 1
   a *= 5</a><a style=""""></a></div></div>","1","1","1","106","for i in [1, 2]:
   a -= 1
   a *= 5","1","0"
"","html-keyboard-response","108","316473","0.0-4.0-9.0-1.0-0.0","318","<div><div style=""""><a style=""white-space:pre-wrap;""> for i in [1, 2]:
   a -= 1
   a *= 5</a><a style=""""></a></div></div>","5","5","1","106","for i in [1, 2]:
   a -= 1
   a *= 5","5","1"
"","html-keyboard-response","109","318025","0.0-4.0-9.0-2.0-0.0","1046","<div><div style=""""><a style=""white-space:pre-wrap;""> for i in [1, 2]:
   a -= 1
   a *= 5</a><a style=""""></a></div></div>","4","4","1","106","for i in [1, 2]:
   a -= 1
   a *= 5","4","2"
"","html-keyboard-response","110","319905","0.0-4.0-9.0-3.0-0.0","1375","<div><div style=""""><a style=""white-space:pre-wrap;""> for i in [1, 2]:
   a -= 1
   a *= 5</a><a style=""""></a></div></div>","20","20","1","106","for i in [1, 2]:
   a -= 1
   a *= 5","20","3"
"","html-keyboard-response","111","320745","0.0-4.0-9.0-4.0-0.0","328","<div><div style=""""><a style=""white-space:pre-wrap;""> for i in [1, 2]:
   a -= 1
   a *= 5</a><a style=""""></a></div></div>","backspace","backspace","1","106","for i in [1, 2]:
   a -= 1
   a *= 5","backspace","4"
"","html-keyboard-response","112","324881","0.0-4.0-10.0-0.0-0.0","3620","<div><div style=""""><a style=""white-space:pre-wrap;""> for i in [1, 2, 3]:
   a -= 3</a><a style=""""></a></div></div>","17","17","1","107","for i in [1, 2, 3]:
   a -= 3","17","0"
"","html-keyboard-response","113","326289","0.0-4.0-10.0-1.0-0.0","900","<div><div style=""""><a style=""white-space:pre-wrap;""> for i in [1, 2, 3]:
   a -= 3</a><a style=""""></a></div></div>","14","14","1","107","for i in [1, 2, 3]:
   a -= 3","14","1"
"","html-keyboard-response","114","327457","0.0-4.0-10.0-2.0-0.0","660","<div><div style=""""><a style=""white-space:pre-wrap;""> for i in [1, 2, 3]:
   a -= 3</a><a style=""""></a></div></div>","11","11","1","107","for i in [1, 2, 3]:
   a -= 3","11","2"
"","html-keyboard-response","115","328513","0.0-4.0-10.0-3.0-0.0","542","<div><div style=""""><a style=""white-space:pre-wrap;""> for i in [1, 2, 3]:
   a -= 3</a><a style=""""></a></div></div>","backspace","backspace","1","107","for i in [1, 2, 3]:
   a -= 3","backspace","3"
"","html-keyboard-response","116","333769","0.0-4.0-11.0-0.0-0.0","4738","<div><div style=""""><a style=""white-space:pre-wrap;""> while a >= 5:
   a -= 5</a><a style=""""></a></div></div>","6","6","1","108","while a >= 5:
   a -= 5","6","0"
"","html-keyboard-response","117","334433","0.0-4.0-11.0-1.0-0.0","147","<div><div style=""""><a style=""white-space:pre-wrap;""> while a >= 5:
   a -= 5</a><a style=""""></a></div></div>","1","1","1","108","while a >= 5:
   a -= 5","1","1"
"","html-keyboard-response","118","335921","0.0-4.0-11.0-2.0-0.0","984","<div><div style=""""><a style=""white-space:pre-wrap;""> while a >= 5:
   a -= 5</a><a style=""""></a></div></div>","backspace","backspace","1","108","while a >= 5:
   a -= 5","backspace","2"
"","html-keyboard-response","119","431457","0.0-5.0-0.0-0.0","95028","<p style=""position:absolute; top:30%; font-size:25px; color:green;"" >Take a short break now</p>"," ","","","","","",""
"","html-keyboard-response","120","433377","0.0-5.0-1.0","1918","<p style=""font-size: 25px;"">Please press space to start the next program<br>>>>>>></p>"," ","","","","","",""
"","html-keyboard-response","121","435128","0.0-5.0-2.0","1750","<div><div style="" font-size:25px; color:green;""><a style=""white-space:pre-wrap;""> a = 7</a><a style=""""></a></div></div>","","null","","10","a = 7","",""
"","html-keyboard-response","122","438040","0.0-5.0-4.0-0.0-0.0","2404","<div><div style=""""><a style=""white-space:pre-wrap;""> for i in [1, 2]:
   a *= 2
   a -= 4</a><a style=""""></a></div></div>","14","14","1","11","for i in [1, 2]:
   a *= 2
   a -= 4","14","0"
"","html-keyboard-response","123","438897","0.0-5.0-4.0-1.0-0.0","350","<div><div style=""""><a style=""white-space:pre-wrap;""> for i in [1, 2]:
   a *= 2
   a -= 4</a><a style=""""></a></div></div>","10","10","1","11","for i in [1, 2]:
   a *= 2
   a -= 4","10","1"
"","html-keyboard-response","124","441561","0.0-5.0-4.0-2.0-0.0","2153","<div><div style=""""><a style=""white-space:pre-wrap;""> for i in [1, 2]:
   a *= 2
   a -= 4</a><a style=""""></a></div></div>","20","20","1","11","for i in [1, 2]:
   a *= 2
   a -= 4","20","2"
"","html-keyboard-response","125","443265","0.0-5.0-4.0-3.0-0.0","1200","<div><div style=""""><a style=""white-space:pre-wrap;""> for i in [1, 2]:
   a *= 2
   a -= 4</a><a style=""""></a></div></div>","16","16","1","11","for i in [1, 2]:
   a *= 2
   a -= 4","16","3"
"","html-keyboard-response","126","450337","0.0-5.0-4.0-4.0-0.0","6569","<div><div style=""""><a style=""white-space:pre-wrap;""> for i in [1, 2]:
   a *= 2
   a -= 4</a><a style=""""></a></div></div>","backspace","backspace","1","11","for i in [1, 2]:
   a *= 2
   a -= 4","backspace","4"
"","html-keyboard-response","127","455489","0.0-5.0-5.0-0.0-0.0","4646","<div><div style=""""><a style=""white-space:pre-wrap;""> while a >= 3:
   a /= 4
   a *= 2</a><a style=""""></a></div></div>","4","4","1","12","while a >= 3:
   a /= 4
   a *= 2","4","0"
"","html-keyboard-response","128","457416","0.0-5.0-5.0-1.0-0.0","1415","<div><div style=""""><a style=""white-space:pre-wrap;""> while a >= 3:
   a /= 4
   a *= 2</a><a style=""""></a></div></div>","8","8","1","12","while a >= 3:
   a /= 4
   a *= 2","8","1"
"","html-keyboard-response","129","458728","0.0-5.0-5.0-2.0-0.0","807","<div><div style=""""><a style=""white-space:pre-wrap;""> while a >= 3:
   a /= 4
   a *= 2</a><a style=""""></a></div></div>","2","2","1","12","while a >= 3:
   a /= 4
   a *= 2","2","2"
"","html-keyboard-response","130","460169","0.0-5.0-5.0-3.0-0.0","938","<div><div style=""""><a style=""white-space:pre-wrap;""> while a >= 3:
   a /= 4
   a *= 2</a><a style=""""></a></div></div>","4","4","1","12","while a >= 3:
   a /= 4
   a *= 2","4","3"
"","html-keyboard-response","131","461185","0.0-5.0-5.0-4.0-0.0","502","<div><div style=""""><a style=""white-space:pre-wrap;""> while a >= 3:
   a /= 4
   a *= 2</a><a style=""""></a></div></div>","1","1","1","12","while a >= 3:
   a /= 4
   a *= 2","1","4"
"","html-keyboard-response","132","462105","0.0-5.0-5.0-5.0-0.0","408","<div><div style=""""><a style=""white-space:pre-wrap;""> while a >= 3:
   a /= 4
   a *= 2</a><a style=""""></a></div></div>","2","2","1","12","while a >= 3:
   a /= 4
   a *= 2","2","5"
"","html-keyboard-response","133","463121","0.0-5.0-5.0-6.0-0.0","502","<div><div style=""""><a style=""white-space:pre-wrap;""> while a >= 3:
   a /= 4
   a *= 2</a><a style=""""></a></div></div>","backspace","backspace","1","12","while a >= 3:
   a /= 4
   a *= 2","backspace","6"
"","html-keyboard-response","134","468737","0.0-5.0-6.0-0.0-0.0","5102","<div><div style=""""><a style=""white-space:pre-wrap;""> while a <= 6:
   a = round_up(a*2.5)</a><a style=""""></a></div></div>","5","5","1","13","while a <= 6:
   a = round_up(a*2.5)","5","0"
"","html-keyboard-response","135","474353","0.0-5.0-6.0-1.0-0.0","5105","<div><div style=""""><a style=""white-space:pre-wrap;""> while a <= 6:
   a = round_up(a*2.5)</a><a style=""""></a></div></div>","13","13","1","13","while a <= 6:
   a = round_up(a*2.5)","13","1"
"","html-keyboard-response","136","475753","0.0-5.0-6.0-2.0-0.0","896","<div><div style=""""><a style=""white-space:pre-wrap;""> while a <= 6:
   a = round_up(a*2.5)</a><a style=""""></a></div></div>","backspace","backspace","1","13","while a <= 6:
   a = round_up(a*2.5)","backspace","2"
"","html-keyboard-response","137","480089","0.0-5.0-7.0-0.0-0.0","3824","<div><div style=""""><a style=""white-space:pre-wrap;""> while a >= 7:
   a = average(a,5)</a><a style=""""></a></div></div>","9","9","1","14","while a >= 7:
   a = average(a,5)","9","0"
"","html-keyboard-response","138","483201","0.0-5.0-7.0-1.0-0.0","2601","<div><div style=""""><a style=""white-space:pre-wrap;""> while a >= 7:
   a = average(a,5)</a><a style=""""></a></div></div>","7","7","1","14","while a >= 7:
   a = average(a,5)","7","1"
"","html-keyboard-response","139","484793","0.0-5.0-7.0-2.0-0.0","1080","<div><div style=""""><a style=""white-space:pre-wrap;""> while a >= 7:
   a = average(a,5)</a><a style=""""></a></div></div>","6","6","1","14","while a >= 7:
   a = average(a,5)","6","2"
"","html-keyboard-response","140","485689","0.0-5.0-7.0-3.0-0.0","380","<div><div style=""""><a style=""white-space:pre-wrap;""> while a >= 7:
   a = average(a,5)</a><a style=""""></a></div></div>","backspace","backspace","1","14","while a >= 7:
   a = average(a,5)","backspace","3"
"","html-keyboard-response","141","489313","0.0-5.0-8.0-0.0-0.0","3111","<div><div style=""""><a style=""white-space:pre-wrap;""> while a >= 4:
   a += 2
   a /= 2</a><a style=""""></a></div></div>","8","8","1","15","while a >= 4:
   a += 2
   a /= 2","8","0"
"","html-keyboard-response","142","490792","0.0-5.0-8.0-1.0-0.0","963","<div><div style=""""><a style=""white-space:pre-wrap;""> while a >= 4:
   a += 2
   a /= 2</a><a style=""""></a></div></div>","4","4","1","15","while a >= 4:
   a += 2
   a /= 2","4","1"
"","html-keyboard-response","143","493175","0.0-5.0-8.0-2.0-0.0","1880","<div><div style=""""><a style=""white-space:pre-wrap;""> while a >= 4:
   a += 2
   a /= 2</a><a style=""""></a></div></div>","6","6","1","15","while a >= 4:
   a += 2
   a /= 2","6","2"
"","html-keyboard-response","144","493896","0.0-5.0-8.0-3.0-0.0","211","<div><div style=""""><a style=""white-space:pre-wrap;""> while a >= 4:
   a += 2
   a /= 2</a><a style=""""></a></div></div>","3","3","1","15","while a >= 4:
   a += 2
   a /= 2","3","3"
"","html-keyboard-response","145","494720","0.0-5.0-8.0-4.0-0.0","317","<div><div style=""""><a style=""white-space:pre-wrap;""> while a >= 4:
   a += 2
   a /= 2</a><a style=""""></a></div></div>","backspace","backspace","1","15","while a >= 4:
   a += 2
   a /= 2","backspace","4"
"","html-keyboard-response","146","497864","0.0-5.0-9.0-0.0-0.0","2632","<div><div style=""""><a style=""white-space:pre-wrap;""> for i in [1, 2]:
   a *= 2</a><a style=""""></a></div></div>","6","6","1","16","for i in [1, 2]:
   a *= 2","6","0"
"","html-keyboard-response","147","500192","0.0-5.0-9.0-1.0-0.0","1816","<div><div style=""""><a style=""white-space:pre-wrap;""> for i in [1, 2]:
   a *= 2</a><a style=""""></a></div></div>","12","12","1","16","for i in [1, 2]:
   a *= 2","12","1"
"","html-keyboard-response","148","501064","0.0-5.0-9.0-2.0-0.0","362","<div><div style=""""><a style=""white-space:pre-wrap;""> for i in [1, 2]:
   a *= 2</a><a style=""""></a></div></div>","backspace","backspace","1","16","for i in [1, 2]:
   a *= 2","backspace","2"
"","html-keyboard-response","149","505616","0.0-5.0-10.0-0.0-0.0","4036","<div><div style=""""><a style=""white-space:pre-wrap;""> for i in [1, 2]:
   a += 6
   a -= 4</a><a style=""""></a></div></div>","18","18","1","17","for i in [1, 2]:
   a += 6
   a -= 4","18","0"
"","html-keyboard-response","150","506560","0.0-5.0-10.0-1.0-0.0","437","<div><div style=""""><a style=""white-space:pre-wrap;""> for i in [1, 2]:
   a += 6
   a -= 4</a><a style=""""></a></div></div>","14","14","1","17","for i in [1, 2]:
   a += 6
   a -= 4","14","1"
"","html-keyboard-response","151","509680","0.0-5.0-10.0-2.0-0.0","2603","<div><div style=""""><a style=""white-space:pre-wrap;""> for i in [1, 2]:
   a += 6
   a -= 4</a><a style=""""></a></div></div>","20","20","1","17","for i in [1, 2]:
   a += 6
   a -= 4","20","2"
"","html-keyboard-response","152","510304","0.0-5.0-10.0-3.0-0.0","117","<div><div style=""""><a style=""white-space:pre-wrap;""> for i in [1, 2]:
   a += 6
   a -= 4</a><a style=""""></a></div></div>","16","16","1","17","for i in [1, 2]:
   a += 6
   a -= 4","16","3"
"","html-keyboard-response","153","511200","0.0-5.0-10.0-4.0-0.0","392","<div><div style=""""><a style=""white-space:pre-wrap;""> for i in [1, 2]:
   a += 6
   a -= 4</a><a style=""""></a></div></div>","backspace","backspace","1","17","for i in [1, 2]:
   a += 6
   a -= 4","backspace","4"
"","html-keyboard-response","154","514424","0.0-5.0-11.0-0.0-0.0","2709","<div><div style=""""><a style=""white-space:pre-wrap;""> while a >= 6:
   a -= 3</a><a style=""""></a></div></div>","13","13","1","18","while a >= 6:
   a -= 3","13","0"
"","html-keyboard-response","155","515544","0.0-5.0-11.0-1.0-0.0","610","<div><div style=""""><a style=""white-space:pre-wrap;""> while a >= 6:
   a -= 3</a><a style=""""></a></div></div>","10","10","1","18","while a >= 6:
   a -= 3","10","1"
"","html-keyboard-response","156","517472","0.0-5.0-11.0-2.0-0.0","1426","<div><div style=""""><a style=""white-space:pre-wrap;""> while a >= 6:
   a -= 3</a><a style=""""></a></div></div>","7","7","1","18","while a >= 6:
   a -= 3","7","2"
"","html-keyboard-response","157","518423","0.0-5.0-11.0-3.0-0.0","442","<div><div style=""""><a style=""white-space:pre-wrap;""> while a >= 6:
   a -= 3</a><a style=""""></a></div></div>","4","4","1","18","while a >= 6:
   a -= 3","4","3"
"","html-keyboard-response","158","519224","0.0-5.0-11.0-4.0-0.0","292","<div><div style=""""><a style=""white-space:pre-wrap;""> while a >= 6:
   a -= 3</a><a style=""""></a></div></div>","backspace","backspace","1","18","while a >= 6:
   a -= 3","backspace","4"
"","html-keyboard-response","159","522361","0.0-6.0-1.0","2631","<p style=""font-size: 25px;"">Please press space to start the next program<br>>>>>>></p>"," ","","","","","",""
"","html-keyboard-response","160","525568","0.0-6.0-2.0","3206","<div><div style="" font-size:25px; color:green;""><a style=""white-space:pre-wrap;""> a = 16</a><a style=""""></a></div></div>","","null","","73","a = 16","",""
"","html-keyboard-response","161","529640","0.0-6.0-4.0-0.0-0.0","3561","<div><div style=""""><a style=""white-space:pre-wrap;""> while a >= 6:
   a /= 2</a><a style=""""></a></div></div>","8","8","1","74","while a >= 6:
   a /= 2","8","0"
"","html-keyboard-response","162","532048","0.0-6.0-4.0-1.0-0.0","1894","<div><div style=""""><a style=""white-space:pre-wrap;""> while a >= 6:
   a /= 2</a><a style=""""></a></div></div>","4","4","1","74","while a >= 6:
   a /= 2","4","1"
"","html-keyboard-response","163","532872","0.0-6.0-4.0-2.0-0.0","314","<div><div style=""""><a style=""white-space:pre-wrap;""> while a >= 6:
   a /= 2</a><a style=""""></a></div></div>","backspace","backspace","1","74","while a >= 6:
   a /= 2","backspace","2"
"","html-keyboard-response","164","536448","0.0-6.0-5.0-0.0-0.0","3061","<div><div style=""""><a style=""white-space:pre-wrap;""> for i in [1, 2, 3]:
   a = round_up(a*1.5)</a><a style=""""></a></div></div>","6","6","1","75","for i in [1, 2, 3]:
   a = round_up(a*1.5)","6","0"
"","html-keyboard-response","165","539608","0.0-6.0-5.0-1.0-0.0","2645","<div><div style=""""><a style=""white-space:pre-wrap;""> for i in [1, 2, 3]:
   a = round_up(a*1.5)</a><a style=""""></a></div></div>","9","9","1","75","for i in [1, 2, 3]:
   a = round_up(a*1.5)","9","1"
"","html-keyboard-response","166","547833","0.0-6.0-5.0-2.0-0.0","7714","<div><div style=""""><a style=""white-space:pre-wrap;""> for i in [1, 2, 3]:
   a = round_up(a*1.5)</a><a style=""""></a></div></div>","14","14","1","75","for i in [1, 2, 3]:
   a = round_up(a*1.5)","14","2"
"","html-keyboard-response","167","548968","0.0-6.0-5.0-3.0-0.0","627","<div><div style=""""><a style=""white-space:pre-wrap;""> for i in [1, 2, 3]:
   a = round_up(a*1.5)</a><a style=""""></a></div></div>","backspace","backspace","1","75","for i in [1, 2, 3]:
   a = round_up(a*1.5)","backspace","3"
"","html-keyboard-response","168","553272","0.0-6.0-6.0-0.0-0.0","3793","<div><div style=""""><a style=""white-space:pre-wrap;""> for i in [1, 2]:
   a += 5
   a -= 6</a><a style=""""></a></div></div>","19","19","1","76","for i in [1, 2]:
   a += 5
   a -= 6","19","0"
"","html-keyboard-response","169","555336","0.0-6.0-6.0-1.0-0.0","1552","<div><div style=""""><a style=""white-space:pre-wrap;""> for i in [1, 2]:
   a += 5
   a -= 6</a><a style=""""></a></div></div>","13","13","1","76","for i in [1, 2]:
   a += 5
   a -= 6","13","1"
"","html-keyboard-response","170","556560","0.0-6.0-6.0-2.0-0.0","712","<div><div style=""""><a style=""white-space:pre-wrap;""> for i in [1, 2]:
   a += 5
   a -= 6</a><a style=""""></a></div></div>","18","18","1","76","for i in [1, 2]:
   a += 5
   a -= 6","18","2"
"","html-keyboard-response","171","557400","0.0-6.0-6.0-3.0-0.0","331","<div><div style=""""><a style=""white-space:pre-wrap;""> for i in [1, 2]:
   a += 5
   a -= 6</a><a style=""""></a></div></div>","12","12","1","76","for i in [1, 2]:
   a += 5
   a -= 6","12","3"
"","html-keyboard-response","172","558257","0.0-6.0-6.0-4.0-0.0","344","<div><div style=""""><a style=""white-space:pre-wrap;""> for i in [1, 2]:
   a += 5
   a -= 6</a><a style=""""></a></div></div>","backspace","backspace","1","76","for i in [1, 2]:
   a += 5
   a -= 6","backspace","4"
"","html-keyboard-response","173","562400","0.0-6.0-7.0-0.0-0.0","3640","<div><div style=""""><a style=""white-space:pre-wrap;""> while a >= 6:
   a = average(a,4)</a><a style=""""></a></div></div>","8","8","1","77","while a >= 6:
   a = average(a,4)","8","0"
"","html-keyboard-response","174","565616","0.0-6.0-7.0-1.0-0.0","2705","<div><div style=""""><a style=""white-space:pre-wrap;""> while a >= 6:
   a = average(a,4)</a><a style=""""></a></div></div>","6","6","1","77","while a >= 6:
   a = average(a,4)","6","1"
"","html-keyboard-response","175","567784","0.0-6.0-7.0-2.0-0.0","1656","<div><div style=""""><a style=""white-space:pre-wrap;""> while a >= 6:
   a = average(a,4)</a><a style=""""></a></div></div>","5","5","1","77","while a >= 6:
   a = average(a,4)","5","2"
"","html-keyboard-response","176","568664","0.0-6.0-7.0-3.0-0.0","364","<div><div style=""""><a style=""white-space:pre-wrap;""> while a >= 6:
   a = average(a,4)</a><a style=""""></a></div></div>","backspace","backspace","1","77","while a >= 6:
   a = average(a,4)","backspace","3"
"","html-keyboard-response","177","571784","0.0-6.0-8.0-0.0-0.0","2604","<div><div style=""""><a style=""white-space:pre-wrap;""> while a >= 3:
   a *= 3
   a -= 11</a><a style=""""></a></div></div>","15","15","1","78","while a >= 3:
   a *= 3
   a -= 11","15","0"
"","html-keyboard-response","178","574001","0.0-6.0-8.0-1.0-0.0","1707","<div><div style=""""><a style=""white-space:pre-wrap;""> while a >= 3:
   a *= 3
   a -= 11</a><a style=""""></a></div></div>","4","4","1","78","while a >= 3:
   a *= 3
   a -= 11","4","1"
"","html-keyboard-response","179","579873","0.0-6.0-8.0-2.0-0.0","5354","<div><div style=""""><a style=""white-space:pre-wrap;""> while a >= 3:
   a *= 3
   a -= 11</a><a style=""""></a></div></div>","12","12","1","78","while a >= 3:
   a *= 3
   a -= 11","12","2"
"","html-keyboard-response","180","581160","0.0-6.0-8.0-3.0-0.0","776","<div><div style=""""><a style=""white-space:pre-wrap;""> while a >= 3:
   a *= 3
   a -= 11</a><a style=""""></a></div></div>","1","1","1","78","while a >= 3:
   a *= 3
   a -= 11","1","3"
"","html-keyboard-response","181","581960","0.0-6.0-8.0-4.0-0.0","296","<div><div style=""""><a style=""white-space:pre-wrap;""> while a >= 3:
   a *= 3
   a -= 11</a><a style=""""></a></div></div>","backspace","backspace","1","78","while a >= 3:
   a *= 3
   a -= 11","backspace","4"
"","html-keyboard-response","182","585465","0.0-6.0-9.0-0.0-0.0","2988","<div><div style=""""><a style=""white-space:pre-wrap;""> while a <= 7:
   a *= 6
   a /= 2</a><a style=""""></a></div></div>","6","6","1","79","while a <= 7:
   a *= 6
   a /= 2","6","0"
"","html-keyboard-response","183","586728","0.0-6.0-9.0-1.0-0.0","745","<div><div style=""""><a style=""white-space:pre-wrap;""> while a <= 7:
   a *= 6
   a /= 2</a><a style=""""></a></div></div>","3","3","1","79","while a <= 7:
   a *= 6
   a /= 2","3","1"
"","html-keyboard-response","184","589799","0.0-6.0-9.0-2.0-0.0","2561","<div><div style=""""><a style=""white-space:pre-wrap;""> while a <= 7:
   a *= 6
   a /= 2</a><a style=""""></a></div></div>","18","18","1","79","while a <= 7:
   a *= 6
   a /= 2","18","2"
"","html-keyboard-response","185","590641","0.0-6.0-9.0-3.0-0.0","328","<div><div style=""""><a style=""white-space:pre-wrap;""> while a <= 7:
   a *= 6
   a /= 2</a><a style=""""></a></div></div>","9","9","1","79","while a <= 7:
   a *= 6
   a /= 2","9","3"
"","html-keyboard-response","186","591440","0.0-6.0-9.0-4.0-0.0","295","<div><div style=""""><a style=""white-space:pre-wrap;""> while a <= 7:
   a *= 6
   a /= 2</a><a style=""""></a></div></div>","backspace","backspace","1","79","while a <= 7:
   a *= 6
   a /= 2","backspace","4"
"","html-keyboard-response","187","594552","0.0-6.0-10.0-0.0-0.0","2609","<div><div style=""""><a style=""white-space:pre-wrap;""> for i in [1, 2]:
   a -= 2</a><a style=""""></a></div></div>","7","7","1","80","for i in [1, 2]:
   a -= 2","7","0"
"","html-keyboard-response","188","595993","0.0-6.0-10.0-1.0-0.0","929","<div><div style=""""><a style=""white-space:pre-wrap;""> for i in [1, 2]:
   a -= 2</a><a style=""""></a></div></div>","5","5","1","80","for i in [1, 2]:
   a -= 2","5","1"
"","html-keyboard-response","189","597105","0.0-6.0-10.0-2.0-0.0","609","<div><div style=""""><a style=""white-space:pre-wrap;""> for i in [1, 2]:
   a -= 2</a><a style=""""></a></div></div>","backspace","backspace","1","80","for i in [1, 2]:
   a -= 2","backspace","2"
"","html-keyboard-response","190","601497","0.0-6.0-11.0-0.0-0.0","3877","<div><div style=""""><a style=""white-space:pre-wrap;""> for i in [1, 2]:
   a += 9
   a /= 2</a><a style=""""></a></div></div>","14","14","1","81","for i in [1, 2]:
   a += 9
   a /= 2","14","0"
"","html-keyboard-response","191","602392","0.0-6.0-11.0-1.0-0.0","382","<div><div style=""""><a style=""white-space:pre-wrap;""> for i in [1, 2]:
   a += 9
   a /= 2</a><a style=""""></a></div></div>","7","7","1","81","for i in [1, 2]:
   a += 9
   a /= 2","7","1"
"","html-keyboard-response","192","604480","0.0-6.0-11.0-2.0-0.0","1578","<div><div style=""""><a style=""white-space:pre-wrap;""> for i in [1, 2]:
   a += 9
   a /= 2</a><a style=""""></a></div></div>","16","16","1","81","for i in [1, 2]:
   a += 9
   a /= 2","16","2"
"","html-keyboard-response","193","605760","0.0-6.0-11.0-3.0-0.0","765","<div><div style=""""><a style=""white-space:pre-wrap;""> for i in [1, 2]:
   a += 9
   a /= 2</a><a style=""""></a></div></div>","8","8","1","81","for i in [1, 2]:
   a += 9
   a /= 2","8","3"
"","html-keyboard-response","194","606600","0.0-6.0-11.0-4.0-0.0","325","<div><div style=""""><a style=""white-space:pre-wrap;""> for i in [1, 2]:
   a += 9
   a /= 2</a><a style=""""></a></div></div>","backspace","backspace","1","81","for i in [1, 2]:
   a += 9
   a /= 2","backspace","4"
"","html-keyboard-response","195","610648","0.0-7.0-1.0","3541","<p style=""font-size: 25px;"">Please press space to start the next program<br>>>>>>></p>"," ","","","","","",""
"","html-keyboard-response","196","612113","0.0-7.0-2.0","1463","<div><div style="" font-size:25px; color:green;""><a style=""white-space:pre-wrap;""> a = 8</a><a style=""""></a></div></div>","","null","","46","a = 8","",""
"","html-keyboard-response","197","615176","0.0-7.0-4.0-0.0-0.0","2549","<div><div style=""""><a style=""white-space:pre-wrap;""> for i in [1, 2, 3]:
   a -= 2
   a += 6</a><a style=""""></a></div></div>","6","6","1","47","for i in [1, 2, 3]:
   a -= 2
   a += 6","6","0"
"","html-keyboard-response","198","616288","0.0-7.0-4.0-1.0-0.0","598","<div><div style=""""><a style=""white-space:pre-wrap;""> for i in [1, 2, 3]:
   a -= 2
   a += 6</a><a style=""""></a></div></div>","12","12","1","47","for i in [1, 2, 3]:
   a -= 2
   a += 6","12","1"
"","html-keyboard-response","199","619056","0.0-7.0-4.0-2.0-0.0","2253","<div><div style=""""><a style=""white-space:pre-wrap;""> for i in [1, 2, 3]:
   a -= 2
   a += 6</a><a style=""""></a></div></div>","10","10","1","47","for i in [1, 2, 3]:
   a -= 2
   a += 6","10","2"
"","html-keyboard-response","200","620968","0.0-7.0-4.0-3.0-0.0","1410","<div><div style=""""><a style=""white-space:pre-wrap;""> for i in [1, 2, 3]:
   a -= 2
   a += 6</a><a style=""""></a></div></div>","16","16","1","47","for i in [1, 2, 3]:
   a -= 2
   a += 6","16","3"
"","html-keyboard-response","201","623088","0.0-7.0-4.0-4.0-0.0","1611","<div><div style=""""><a style=""white-space:pre-wrap;""> for i in [1, 2, 3]:
   a -= 2
   a += 6</a><a style=""""></a></div></div>","14","14","1","47","for i in [1, 2, 3]:
   a -= 2
   a += 6","14","4"
"","html-keyboard-response","202","623904","0.0-7.0-4.0-5.0-0.0","301","<div><div style=""""><a style=""white-space:pre-wrap;""> for i in [1, 2, 3]:
   a -= 2
   a += 6</a><a style=""""></a></div></div>","20","20","1","47","for i in [1, 2, 3]:
   a -= 2
   a += 6","20","5"
"","html-keyboard-response","203","624808","0.0-7.0-4.0-6.0-0.0","395","<div><div style=""""><a style=""white-space:pre-wrap;""> for i in [1, 2, 3]:
   a -= 2
   a += 6</a><a style=""""></a></div></div>","backspace","backspace","1","47","for i in [1, 2, 3]:
   a -= 2
   a += 6","backspace","6"
"","html-keyboard-response","204","628240","0.0-7.0-5.0-0.0-0.0","2916","<div><div style=""""><a style=""white-space:pre-wrap;""> for i in [1, 2]:
   a /= 2</a><a style=""""></a></div></div>","10","10","1","48","for i in [1, 2]:
   a /= 2","10","0"
"","html-keyboard-response","205","629200","0.0-7.0-5.0-1.0-0.0","452","<div><div style=""""><a style=""white-space:pre-wrap;""> for i in [1, 2]:
   a /= 2</a><a style=""""></a></div></div>","5","5","1","48","for i in [1, 2]:
   a /= 2","5","1"
"","html-keyboard-response","206","630128","0.0-7.0-5.0-2.0-0.0","411","<div><div style=""""><a style=""white-space:pre-wrap;""> for i in [1, 2]:
   a /= 2</a><a style=""""></a></div></div>","backspace","backspace","1","48","for i in [1, 2]:
   a /= 2","backspace","2"
"","html-keyboard-response","207","636497","0.0-7.0-6.0-0.0-0.0","5857","<div><div style=""""><a style=""white-space:pre-wrap;""> while a <= 15:
   a = round_up(a*1.5)</a><a style=""""></a></div></div>","8","8","1","49","while a <= 15:
   a = round_up(a*1.5)","8","0"
"","html-keyboard-response","208","640480","0.0-7.0-6.0-1.0-0.0","3468","<div><div style=""""><a style=""white-space:pre-wrap;""> while a <= 15:
   a = round_up(a*1.5)</a><a style=""""></a></div></div>","12","12","1","49","while a <= 15:
   a = round_up(a*1.5)","12","1"
"","html-keyboard-response","209","644568","0.0-7.0-6.0-2.0-0.0","3584","<div><div style=""""><a style=""white-space:pre-wrap;""> while a <= 15:
   a = round_up(a*1.5)</a><a style=""""></a></div></div>","18","18","1","49","while a <= 15:
   a = round_up(a*1.5)","18","2"
"","html-keyboard-response","210","645392","0.0-7.0-6.0-3.0-0.0","314","<div><div style=""""><a style=""white-space:pre-wrap;""> while a <= 15:
   a = round_up(a*1.5)</a><a style=""""></a></div></div>","backspace","backspace","1","49","while a <= 15:
   a = round_up(a*1.5)","backspace","3"
"","html-keyboard-response","211","650377","0.0-7.0-7.0-0.0-0.0","4472","<div><div style=""""><a style=""white-space:pre-wrap;""> for i in [1, 2, 3, 4]:
   a = average(a,2)</a><a style=""""></a></div></div>","10","10","1","50","for i in [1, 2, 3, 4]:
   a = average(a,2)","10","0"
"","html-keyboard-response","212","654504","0.0-7.0-7.0-1.0-0.0","3613","<div><div style=""""><a style=""white-space:pre-wrap;""> for i in [1, 2, 3, 4]:
   a = average(a,2)</a><a style=""""></a></div></div>","6","6","1","50","for i in [1, 2, 3, 4]:
   a = average(a,2)","6","1"
"","html-keyboard-response","213","657744","0.0-7.0-7.0-2.0-0.0","2728","<div><div style=""""><a style=""white-space:pre-wrap;""> for i in [1, 2, 3, 4]:
   a = average(a,2)</a><a style=""""></a></div></div>","4","4","1","50","for i in [1, 2, 3, 4]:
   a = average(a,2)","4","2"
"","html-keyboard-response","214","658592","0.0-7.0-7.0-3.0-0.0","340","<div><div style=""""><a style=""white-space:pre-wrap;""> for i in [1, 2, 3, 4]:
   a = average(a,2)</a><a style=""""></a></div></div>","3","3","1","50","for i in [1, 2, 3, 4]:
   a = average(a,2)","3","3"
"","html-keyboard-response","215","659472","0.0-7.0-7.0-4.0-0.0","374","<div><div style=""""><a style=""white-space:pre-wrap;""> for i in [1, 2, 3, 4]:
   a = average(a,2)</a><a style=""""></a></div></div>","backspace","backspace","1","50","for i in [1, 2, 3, 4]:
   a = average(a,2)","backspace","4"
"","html-keyboard-response","216","662457","0.0-7.0-8.0-0.0-0.0","2469","<div><div style=""""><a style=""white-space:pre-wrap;""> for i in [1, 2]:
   a += 7
   a /= 2</a><a style=""""></a></div></div>","10","10","1","51","for i in [1, 2]:
   a += 7
   a /= 2","10","0"
"","html-keyboard-response","217","663408","0.0-7.0-8.0-1.0-0.0","449","<div><div style=""""><a style=""white-space:pre-wrap;""> for i in [1, 2]:
   a += 7
   a /= 2</a><a style=""""></a></div></div>","5","5","1","51","for i in [1, 2]:
   a += 7
   a /= 2","5","1"
"","html-keyboard-response","218","665424","0.0-7.0-8.0-2.0-0.0","1499","<div><div style=""""><a style=""white-space:pre-wrap;""> for i in [1, 2]:
   a += 7
   a /= 2</a><a style=""""></a></div></div>","12","12","1","51","for i in [1, 2]:
   a += 7
   a /= 2","12","2"
"","html-keyboard-response","219","666168","0.0-7.0-8.0-3.0-0.0","229","<div><div style=""""><a style=""white-space:pre-wrap;""> for i in [1, 2]:
   a += 7
   a /= 2</a><a style=""""></a></div></div>","6","6","1","51","for i in [1, 2]:
   a += 7
   a /= 2","6","3"
"","html-keyboard-response","220","666784","0.0-7.0-8.0-4.0-0.0","107","<div><div style=""""><a style=""white-space:pre-wrap;""> for i in [1, 2]:
   a += 7
   a /= 2</a><a style=""""></a></div></div>","backspace","backspace","1","51","for i in [1, 2]:
   a += 7
   a /= 2","backspace","4"
"","html-keyboard-response","221","669800","0.0-7.0-9.0-0.0-0.0","2513","<div><div style=""""><a style=""white-space:pre-wrap;""> while a <= 15:
   a += 3</a><a style=""""></a></div></div>","9","9","1","52","while a <= 15:
   a += 3","9","0"
"","html-keyboard-response","222","670568","0.0-7.0-9.0-1.0-0.0","261","<div><div style=""""><a style=""white-space:pre-wrap;""> while a <= 15:
   a += 3</a><a style=""""></a></div></div>","12","12","1","52","while a <= 15:
   a += 3","12","1"
"","html-keyboard-response","223","671776","0.0-7.0-9.0-2.0-0.0","706","<div><div style=""""><a style=""white-space:pre-wrap;""> while a <= 15:
   a += 3</a><a style=""""></a></div></div>","15","15","1","52","while a <= 15:
   a += 3","15","2"
"","html-keyboard-response","224","672857","0.0-7.0-9.0-3.0-0.0","566","<div><div style=""""><a style=""white-space:pre-wrap;""> while a <= 15:
   a += 3</a><a style=""""></a></div></div>","18","18","1","52","while a <= 15:
   a += 3","18","3"
"","html-keyboard-response","225","673688","0.0-7.0-9.0-4.0-0.0","323","<div><div style=""""><a style=""white-space:pre-wrap;""> while a <= 15:
   a += 3</a><a style=""""></a></div></div>","backspace","backspace","1","52","while a <= 15:
   a += 3","backspace","4"
"","html-keyboard-response","226","678049","0.0-7.0-10.0-0.0-0.0","3856","<div><div style=""""><a style=""white-space:pre-wrap;""> for i in [1, 2]:
   a /= 3
   a *= 2</a><a style=""""></a></div></div>","6","6","1","53","for i in [1, 2]:
   a /= 3
   a *= 2","6","0"
"","html-keyboard-response","227","678881","0.0-7.0-10.0-1.0-0.0","328","<div><div style=""""><a style=""white-space:pre-wrap;""> for i in [1, 2]:
   a /= 3
   a *= 2</a><a style=""""></a></div></div>","12","12","1","53","for i in [1, 2]:
   a /= 3
   a *= 2","12","1"
"","html-keyboard-response","228","679833","0.0-7.0-10.0-2.0-0.0","435","<div><div style=""""><a style=""white-space:pre-wrap;""> for i in [1, 2]:
   a /= 3
   a *= 2</a><a style=""""></a></div></div>","4","4","1","53","for i in [1, 2]:
   a /= 3
   a *= 2","4","2"
"","html-keyboard-response","229","681433","0.0-7.0-10.0-3.0-0.0","1098","<div><div style=""""><a style=""white-space:pre-wrap;""> for i in [1, 2]:
   a /= 3
   a *= 2</a><a style=""""></a></div></div>","8","8","1","53","for i in [1, 2]:
   a /= 3
   a *= 2","8","3"
"","html-keyboard-response","230","682113","0.0-7.0-10.0-4.0-0.0","172","<div><div style=""""><a style=""white-space:pre-wrap;""> for i in [1, 2]:
   a /= 3
   a *= 2</a><a style=""""></a></div></div>","backspace","backspace","1","53","for i in [1, 2]:
   a /= 3
   a *= 2","backspace","4"
"","html-keyboard-response","231","685465","0.0-7.0-11.0-0.0-0.0","2838","<div><div style=""""><a style=""white-space:pre-wrap;""> for i in [1, 2, 3]:
   a *= 2
   a -= 9</a><a style=""""></a></div></div>","16","16","1","54","for i in [1, 2, 3]:
   a *= 2
   a -= 9","16","0"
"","html-keyboard-response","232","688401","0.0-7.0-11.0-1.0-0.0","2433","<div><div style=""""><a style=""white-space:pre-wrap;""> for i in [1, 2, 3]:
   a *= 2
   a -= 9</a><a style=""""></a></div></div>","7","7","1","54","for i in [1, 2, 3]:
   a *= 2
   a -= 9","7","1"
"","html-keyboard-response","233","692177","0.0-7.0-11.0-2.0-0.0","3272","<div><div style=""""><a style=""white-space:pre-wrap;""> for i in [1, 2, 3]:
   a *= 2
   a -= 9</a><a style=""""></a></div></div>","14","14","1","54","for i in [1, 2, 3]:
   a *= 2
   a -= 9","14","2"
"","html-keyboard-response","234","693857","0.0-7.0-11.0-3.0-0.0","1170","<div><div style=""""><a style=""white-space:pre-wrap;""> for i in [1, 2, 3]:
   a *= 2
   a -= 9</a><a style=""""></a></div></div>","5","5","1","54","for i in [1, 2, 3]:
   a *= 2
   a -= 9","5","3"
"","html-keyboard-response","235","696697","0.0-7.0-11.0-4.0-0.0","2336","<div><div style=""""><a style=""white-space:pre-wrap;""> for i in [1, 2, 3]:
   a *= 2
   a -= 9</a><a style=""""></a></div></div>","10","10","1","54","for i in [1, 2, 3]:
   a *= 2
   a -= 9","10","4"
"","html-keyboard-response","236","697609","0.0-7.0-11.0-5.0-0.0","395","<div><div style=""""><a style=""white-space:pre-wrap;""> for i in [1, 2, 3]:
   a *= 2
   a -= 9</a><a style=""""></a></div></div>","1","1","1","54","for i in [1, 2, 3]:
   a *= 2
   a -= 9","1","5"
"","html-keyboard-response","237","698401","0.0-7.0-11.0-6.0-0.0","281","<div><div style=""""><a style=""white-space:pre-wrap;""> for i in [1, 2, 3]:
   a *= 2
   a -= 9</a><a style=""""></a></div></div>","backspace","backspace","1","54","for i in [1, 2, 3]:
   a *= 2
   a -= 9","backspace","6"
"","html-keyboard-response","238","743649","0.0-8.0-0.0-0.0","44733","<p style=""position:absolute; top:30%; font-size:25px; color:green;"" >Take a short break now</p>"," ","","","","","",""
"","html-keyboard-response","239","744848","0.0-8.0-1.0","1198","<p style=""font-size: 25px;"">Please press space to start the next program<br>>>>>>></p>"," ","","","","","",""
"","html-keyboard-response","240","747081","0.0-8.0-2.0","2231","<div><div style="" font-size:25px; color:green;""><a style=""white-space:pre-wrap;""> a = 16</a><a style=""""></a></div></div>","","null","","82","a = 16","",""
"","html-keyboard-response","241","749896","0.0-8.0-4.0-0.0-0.0","2309","<div><div style=""""><a style=""white-space:pre-wrap;""> for i in [1, 2]:
   a /= 2</a><a style=""""></a></div></div>","8","8","1","83","for i in [1, 2]:
   a /= 2","8","0"
"","html-keyboard-response","242","750792","0.0-8.0-4.0-1.0-0.0","387","<div><div style=""""><a style=""white-space:pre-wrap;""> for i in [1, 2]:
   a /= 2</a><a style=""""></a></div></div>","4","4","1","83","for i in [1, 2]:
   a /= 2","4","1"
"","html-keyboard-response","243","751648","0.0-8.0-4.0-2.0-0.0","352","<div><div style=""""><a style=""white-space:pre-wrap;""> for i in [1, 2]:
   a /= 2</a><a style=""""></a></div></div>","backspace","backspace","1","83","for i in [1, 2]:
   a /= 2","backspace","2"
"","html-keyboard-response","244","754185","0.0-8.0-5.0-0.0-0.0","2031","<div><div style=""""><a style=""white-space:pre-wrap;""> for i in [1, 2, 3]:
   a = round_up(a*1.5)</a><a style=""""></a></div></div>","6","6","1","84","for i in [1, 2, 3]:
   a = round_up(a*1.5)","6","0"
"","html-keyboard-response","245","756224","0.0-8.0-5.0-1.0-0.0","1537","<div><div style=""""><a style=""white-space:pre-wrap;""> for i in [1, 2, 3]:
   a = round_up(a*1.5)</a><a style=""""></a></div></div>","9","9","1","84","for i in [1, 2, 3]:
   a = round_up(a*1.5)","9","1"
"","html-keyboard-response","246","757481","0.0-8.0-5.0-2.0-0.0","741","<div><div style=""""><a style=""white-space:pre-wrap;""> for i in [1, 2, 3]:
   a = round_up(a*1.5)</a><a style=""""></a></div></div>","14","14","1","84","for i in [1, 2, 3]:
   a = round_up(a*1.5)","14","2"
"","html-keyboard-response","247","758473","0.0-8.0-5.0-3.0-0.0","479","<div><div style=""""><a style=""white-space:pre-wrap;""> for i in [1, 2, 3]:
   a = round_up(a*1.5)</a><a style=""""></a></div></div>","backspace","backspace","1","84","for i in [1, 2, 3]:
   a = round_up(a*1.5)","backspace","3"
"","html-keyboard-response","248","761351","0.0-8.0-6.0-0.0-0.0","2368","<div><div style=""""><a style=""white-space:pre-wrap;""> while a >= 13:
   a += 5
   a -= 6</a><a style=""""></a></div></div>","19","19","1","85","while a >= 13:
   a += 5
   a -= 6","19","0"
"","html-keyboard-response","249","770009","0.0-8.0-6.0-1.0-0.0","8143","<div><div style=""""><a style=""white-space:pre-wrap;""> while a >= 13:
   a += 5
   a -= 6</a><a style=""""></a></div></div>","13","13","1","85","while a >= 13:
   a += 5
   a -= 6","13","1"
"","html-keyboard-response","250","773128","0.0-8.0-6.0-2.0-0.0","2616","<div><div style=""""><a style=""white-space:pre-wrap;""> while a >= 13:
   a += 5
   a -= 6</a><a style=""""></a></div></div>","18","18","1","85","while a >= 13:
   a += 5
   a -= 6","18","2"
"","html-keyboard-response","251","773897","0.0-8.0-6.0-3.0-0.0","259","<div><div style=""""><a style=""white-space:pre-wrap;""> while a >= 13:
   a += 5
   a -= 6</a><a style=""""></a></div></div>","12","12","1","85","while a >= 13:
   a += 5
   a -= 6","12","3"
"","html-keyboard-response","252","775561","0.0-8.0-6.0-4.0-0.0","1155","<div><div style=""""><a style=""white-space:pre-wrap;""> while a >= 13:
   a += 5
   a -= 6</a><a style=""""></a></div></div>","backspace","backspace","1","85","while a >= 13:
   a += 5
   a -= 6","backspace","4"
"","html-keyboard-response","253","779328","0.0-8.0-7.0-0.0-0.0","3264","<div><div style=""""><a style=""white-space:pre-wrap;""> while a >= 6:
   a = average(a,4)</a><a style=""""></a></div></div>","8","8","1","86","while a >= 6:
   a = average(a,4)","8","0"
"","html-keyboard-response","254","782697","0.0-8.0-7.0-1.0-0.0","2854","<div><div style=""""><a style=""white-space:pre-wrap;""> while a >= 6:
   a = average(a,4)</a><a style=""""></a></div></div>","6","6","1","86","while a >= 6:
   a = average(a,4)","6","1"
"","html-keyboard-response","255","783816","0.0-8.0-7.0-2.0-0.0","616","<div><div style=""""><a style=""white-space:pre-wrap;""> while a >= 6:
   a = average(a,4)</a><a style=""""></a></div></div>","5","5","1","86","while a >= 6:
   a = average(a,4)","5","2"
"","html-keyboard-response","256","784609","0.0-8.0-7.0-3.0-0.0","283","<div><div style=""""><a style=""white-space:pre-wrap;""> while a >= 6:
   a = average(a,4)</a><a style=""""></a></div></div>","backspace","backspace","1","86","while a >= 6:
   a = average(a,4)","backspace","3"
"","html-keyboard-response","257","787968","0.0-8.0-8.0-0.0-0.0","2843","<div><div style=""""><a style=""white-space:pre-wrap;""> for i in [1, 2]:
   a *= 3
   a -= 11</a><a style=""""></a></div></div>","15","15","1","87","for i in [1, 2]:
   a *= 3
   a -= 11","15","0"
"","html-keyboard-response","258","789697","0.0-8.0-8.0-1.0-0.0","1211","<div><div style=""""><a style=""white-space:pre-wrap;""> for i in [1, 2]:
   a *= 3
   a -= 11</a><a style=""""></a></div></div>","4","4","1","87","for i in [1, 2]:
   a *= 3
   a -= 11","4","1"
"","html-keyboard-response","259","792577","0.0-8.0-8.0-2.0-0.0","2365","<div><div style=""""><a style=""white-space:pre-wrap;""> for i in [1, 2]:
   a *= 3
   a -= 11</a><a style=""""></a></div></div>","12","12","1","87","for i in [1, 2]:
   a *= 3
   a -= 11","12","2"
"","html-keyboard-response","260","793321","0.0-8.0-8.0-3.0-0.0","239","<div><div style=""""><a style=""white-space:pre-wrap;""> for i in [1, 2]:
   a *= 3
   a -= 11</a><a style=""""></a></div></div>","1","1","1","87","for i in [1, 2]:
   a *= 3
   a -= 11","1","3"
"","html-keyboard-response","261","794185","0.0-8.0-8.0-4.0-0.0","350","<div><div style=""""><a style=""white-space:pre-wrap;""> for i in [1, 2]:
   a *= 3
   a -= 11</a><a style=""""></a></div></div>","backspace","backspace","1","87","for i in [1, 2]:
   a *= 3
   a -= 11","backspace","4"
"","html-keyboard-response","262","797360","0.0-8.0-9.0-0.0-0.0","2669","<div><div style=""""><a style=""white-space:pre-wrap;""> while a <= 7:
   a *= 6
   a /= 2</a><a style=""""></a></div></div>","6","6","1","88","while a <= 7:
   a *= 6
   a /= 2","6","0"
"","html-keyboard-response","263","798832","0.0-8.0-9.0-1.0-0.0","968","<div><div style=""""><a style=""white-space:pre-wrap;""> while a <= 7:
   a *= 6
   a /= 2</a><a style=""""></a></div></div>","3","3","1","88","while a <= 7:
   a *= 6
   a /= 2","3","1"
"","html-keyboard-response","264","804889","0.0-8.0-9.0-2.0-0.0","5554","<div><div style=""""><a style=""white-space:pre-wrap;""> while a <= 7:
   a *= 6
   a /= 2</a><a style=""""></a></div></div>","18","18","1","88","while a <= 7:
   a *= 6
   a /= 2","18","2"
"","html-keyboard-response","265","806376","0.0-8.0-9.0-3.0-0.0","973","<div><div style=""""><a style=""white-space:pre-wrap;""> while a <= 7:
   a *= 6
   a /= 2</a><a style=""""></a></div></div>","9","9","1","88","while a <= 7:
   a *= 6
   a /= 2","9","3"
"","html-keyboard-response","266","807065","0.0-8.0-9.0-4.0-0.0","186","<div><div style=""""><a style=""white-space:pre-wrap;""> while a <= 7:
   a *= 6
   a /= 2</a><a style=""""></a></div></div>","backspace","backspace","1","88","while a <= 7:
   a *= 6
   a /= 2","backspace","4"
"","html-keyboard-response","267","809889","0.0-8.0-10.0-0.0-0.0","2319","<div><div style=""""><a style=""white-space:pre-wrap;""> while a >= 7:
   a -= 2</a><a style=""""></a></div></div>","7","7","1","89","while a >= 7:
   a -= 2","7","0"
"","html-keyboard-response","268","810841","0.0-8.0-10.0-1.0-0.0","448","<div><div style=""""><a style=""white-space:pre-wrap;""> while a >= 7:
   a -= 2</a><a style=""""></a></div></div>","5","5","1","89","while a >= 7:
   a -= 2","5","1"
"","html-keyboard-response","269","811721","0.0-8.0-10.0-2.0-0.0","365","<div><div style=""""><a style=""white-space:pre-wrap;""> while a >= 7:
   a -= 2</a><a style=""""></a></div></div>","backspace","backspace","1","89","while a >= 7:
   a -= 2","backspace","2"
"","html-keyboard-response","270","816081","0.0-8.0-11.0-0.0-0.0","3850","<div><div style=""""><a style=""white-space:pre-wrap;""> for i in [1, 2]:
   a += 9
   a /= 2</a><a style=""""></a></div></div>","14","14","1","90","for i in [1, 2]:
   a += 9
   a /= 2","14","0"
"","html-keyboard-response","271","817033","0.0-8.0-11.0-1.0-0.0","447","<div><div style=""""><a style=""white-space:pre-wrap;""> for i in [1, 2]:
   a += 9
   a /= 2</a><a style=""""></a></div></div>","7","7","1","90","for i in [1, 2]:
   a += 9
   a /= 2","7","1"
"","html-keyboard-response","272","821113","0.0-8.0-11.0-2.0-0.0","3577","<div><div style=""""><a style=""white-space:pre-wrap;""> for i in [1, 2]:
   a += 9
   a /= 2</a><a style=""""></a></div></div>","16","16","1","90","for i in [1, 2]:
   a += 9
   a /= 2","16","2"
"","html-keyboard-response","273","822193","0.0-8.0-11.0-3.0-0.0","571","<div><div style=""""><a style=""white-space:pre-wrap;""> for i in [1, 2]:
   a += 9
   a /= 2</a><a style=""""></a></div></div>","8","8","1","90","for i in [1, 2]:
   a += 9
   a /= 2","8","3"
"","html-keyboard-response","274","823009","0.0-8.0-11.0-4.0-0.0","308","<div><div style=""""><a style=""white-space:pre-wrap;""> for i in [1, 2]:
   a += 9
   a /= 2</a><a style=""""></a></div></div>","backspace","backspace","1","90","for i in [1, 2]:
   a += 9
   a /= 2","backspace","4"
"","html-keyboard-response","275","825777","0.0-9.0-1.0","2253","<p style=""font-size: 25px;"">Please press space to start the next program<br>>>>>>></p>"," ","","","","","",""
"","html-keyboard-response","276","827465","0.0-9.0-2.0","1687","<div><div style="" font-size:25px; color:green;""><a style=""white-space:pre-wrap;""> a = 18</a><a style=""""></a></div></div>","","null","","28","a = 18","",""
"","html-keyboard-response","277","831345","0.0-9.0-4.0-0.0-0.0","3367","<div><div style=""""><a style=""white-space:pre-wrap;""> while a >= 10:
   a /= 3
   a *= 2</a><a style=""""></a></div></div>","6","6","1","29","while a >= 10:
   a /= 3
   a *= 2","6","0"
"","html-keyboard-response","278","832361","0.0-9.0-4.0-1.0-0.0","510","<div><div style=""""><a style=""white-space:pre-wrap;""> while a >= 10:
   a /= 3
   a *= 2</a><a style=""""></a></div></div>","12","12","1","29","while a >= 10:
   a /= 3
   a *= 2","12","1"
"","html-keyboard-response","279","833817","0.0-9.0-4.0-2.0-0.0","951","<div><div style=""""><a style=""white-space:pre-wrap;""> while a >= 10:
   a /= 3
   a *= 2</a><a style=""""></a></div></div>","4","4","1","29","while a >= 10:
   a /= 3
   a *= 2","4","2"
"","html-keyboard-response","280","836065","0.0-9.0-4.0-3.0-0.0","1739","<div><div style=""""><a style=""white-space:pre-wrap;""> while a >= 10:
   a /= 3
   a *= 2</a><a style=""""></a></div></div>","8","8","1","29","while a >= 10:
   a /= 3
   a *= 2","8","3"
"","html-keyboard-response","281","836657","0.0-9.0-4.0-4.0-0.0","81","<div><div style=""""><a style=""white-space:pre-wrap;""> while a >= 10:
   a /= 3
   a *= 2</a><a style=""""></a></div></div>","backspace","backspace","1","29","while a >= 10:
   a /= 3
   a *= 2","backspace","4"
"","html-keyboard-response","282","841865","0.0-9.0-5.0-0.0-0.0","4697","<div><div style=""""><a style=""white-space:pre-wrap;""> for i in [1, 2, 3]:
   a /= 2</a><a style=""""></a></div></div>","4","4","1","30","for i in [1, 2, 3]:
   a /= 2","4","0"
"","html-keyboard-response","283","842529","0.0-9.0-5.0-1.0-0.0","150","<div><div style=""""><a style=""white-space:pre-wrap;""> for i in [1, 2, 3]:
   a /= 2</a><a style=""""></a></div></div>","2","2","1","30","for i in [1, 2, 3]:
   a /= 2","2","1"
"","html-keyboard-response","284","843193","0.0-9.0-5.0-2.0-0.0","157","<div><div style=""""><a style=""white-space:pre-wrap;""> for i in [1, 2, 3]:
   a /= 2</a><a style=""""></a></div></div>","1","1","1","30","for i in [1, 2, 3]:
   a /= 2","1","2"
"","html-keyboard-response","285","843849","0.0-9.0-5.0-3.0-0.0","138","<div><div style=""""><a style=""white-space:pre-wrap;""> for i in [1, 2, 3]:
   a /= 2</a><a style=""""></a></div></div>","backspace","backspace","1","30","for i in [1, 2, 3]:
   a /= 2","backspace","3"
"","html-keyboard-response","286","847489","0.0-9.0-6.0-0.0-0.0","3135","<div><div style=""""><a style=""white-space:pre-wrap;""> for i in [1, 2, 3, 4]:
   a += 2</a><a style=""""></a></div></div>","3","3","1","31","for i in [1, 2, 3, 4]:
   a += 2","3","0"
"","html-keyboard-response","287","848233","0.0-9.0-6.0-1.0-0.0","230","<div><div style=""""><a style=""white-space:pre-wrap;""> for i in [1, 2, 3, 4]:
   a += 2</a><a style=""""></a></div></div>","5","5","1","31","for i in [1, 2, 3, 4]:
   a += 2","5","1"
"","html-keyboard-response","288","848881","0.0-9.0-6.0-2.0-0.0","144","<div><div style=""""><a style=""white-space:pre-wrap;""> for i in [1, 2, 3, 4]:
   a += 2</a><a style=""""></a></div></div>","7","7","1","31","for i in [1, 2, 3, 4]:
   a += 2","7","2"
"","html-keyboard-response","289","849529","0.0-9.0-6.0-3.0-0.0","133","<div><div style=""""><a style=""white-space:pre-wrap;""> for i in [1, 2, 3, 4]:
   a += 2</a><a style=""""></a></div></div>","9","9","1","31","for i in [1, 2, 3, 4]:
   a += 2","9","3"
"","html-keyboard-response","290","850065","0.0-9.0-6.0-4.0-0.0","27","<div><div style=""""><a style=""white-space:pre-wrap;""> for i in [1, 2, 3, 4]:
   a += 2</a><a style=""""></a></div></div>","backspace","backspace","1","31","for i in [1, 2, 3, 4]:
   a += 2","backspace","4"
"","html-keyboard-response","291","854441","0.0-9.0-7.0-0.0-0.0","3863","<div><div style=""""><a style=""white-space:pre-wrap;""> for i in [1, 2]:
   a += 9
   a /= 3</a><a style=""""></a></div></div>","18","18","1","32","for i in [1, 2]:
   a += 9
   a /= 3","18","0"
"","html-keyboard-response","292","856393","0.0-9.0-7.0-1.0-0.0","1440","<div><div style=""""><a style=""white-space:pre-wrap;""> for i in [1, 2]:
   a += 9
   a /= 3</a><a style=""""></a></div></div>","6","6","1","32","for i in [1, 2]:
   a += 9
   a /= 3","6","1"
"","html-keyboard-response","293","859193","0.0-9.0-7.0-2.0-0.0","2284","<div><div style=""""><a style=""white-space:pre-wrap;""> for i in [1, 2]:
   a += 9
   a /= 3</a><a style=""""></a></div></div>","15","15","1","32","for i in [1, 2]:
   a += 9
   a /= 3","15","2"
"","html-keyboard-response","294","859985","0.0-9.0-7.0-3.0-0.0","277","<div><div style=""""><a style=""white-space:pre-wrap;""> for i in [1, 2]:
   a += 9
   a /= 3</a><a style=""""></a></div></div>","5","5","1","32","for i in [1, 2]:
   a += 9
   a /= 3","5","3"
"","html-keyboard-response","295","860833","0.0-9.0-7.0-4.0-0.0","345","<div><div style=""""><a style=""white-space:pre-wrap;""> for i in [1, 2]:
   a += 9
   a /= 3</a><a style=""""></a></div></div>","backspace","backspace","1","32","for i in [1, 2]:
   a += 9
   a /= 3","backspace","4"
"","html-keyboard-response","296","868777","0.0-9.0-8.0-0.0-0.0","7428","<div><div style=""""><a style=""white-space:pre-wrap;""> for i in [1, 2, 3]:
   a = round_down(a*1.5)</a><a style=""""></a></div></div>","7","7","1","33","for i in [1, 2, 3]:
   a = round_down(a*1.5)","7","0"
"","html-keyboard-response","297","874537","0.0-9.0-8.0-1.0-0.0","5254","<div><div style=""""><a style=""white-space:pre-wrap;""> for i in [1, 2, 3]:
   a = round_down(a*1.5)</a><a style=""""></a></div></div>","10","10","1","33","for i in [1, 2, 3]:
   a = round_down(a*1.5)","10","1"
"","html-keyboard-response","298","877529","0.0-9.0-8.0-2.0-0.0","2478","<div><div style=""""><a style=""white-space:pre-wrap;""> for i in [1, 2, 3]:
   a = round_down(a*1.5)</a><a style=""""></a></div></div>","15","15","1","33","for i in [1, 2, 3]:
   a = round_down(a*1.5)","15","2"
"","html-keyboard-response","299","878408","0.0-9.0-8.0-3.0-0.0","365","<div><div style=""""><a style=""white-space:pre-wrap;""> for i in [1, 2, 3]:
   a = round_down(a*1.5)</a><a style=""""></a></div></div>","backspace","backspace","1","33","for i in [1, 2, 3]:
   a = round_down(a*1.5)","backspace","3"
"","html-keyboard-response","300","883865","0.0-9.0-9.0-0.0-0.0","4944","<div><div style=""""><a style=""white-space:pre-wrap;""> while a >= 8:
   a = average(a,3)</a><a style=""""></a></div></div>","9","9","1","34","while a >= 8:
   a = average(a,3)","9","0"
"","html-keyboard-response","301","886441","0.0-9.0-9.0-1.0-0.0","2069","<div><div style=""""><a style=""white-space:pre-wrap;""> while a >= 8:
   a = average(a,3)</a><a style=""""></a></div></div>","6","6","1","34","while a >= 8:
   a = average(a,3)","6","1"
"","html-keyboard-response","302","888921","0.0-9.0-9.0-2.0-0.0","1976","<div><div style=""""><a style=""white-space:pre-wrap;""> while a >= 8:
   a = average(a,3)</a><a style=""""></a></div></div>","backspace","backspace","1","34","while a >= 8:
   a = average(a,3)","backspace","2"
"","html-keyboard-response","303","893145","0.0-9.0-10.0-0.0-0.0","3718","<div><div style=""""><a style=""white-space:pre-wrap;""> while a <= 11:
   a *= 2
   a -= 5</a><a style=""""></a></div></div>","12","12","1","35","while a <= 11:
   a *= 2
   a -= 5","12","0"
"","html-keyboard-response","304","898713","0.0-9.0-10.0-1.0-0.0","5055","<div><div style=""""><a style=""white-space:pre-wrap;""> while a <= 11:
   a *= 2
   a -= 5</a><a style=""""></a></div></div>","7","7","1","35","while a <= 11:
   a *= 2
   a -= 5","7","1"
"","html-keyboard-response","305","904545","0.0-9.0-10.0-2.0-0.0","5315","<div><div style=""""><a style=""white-space:pre-wrap;""> while a <= 11:
   a *= 2
   a -= 5</a><a style=""""></a></div></div>","14","14","1","35","while a <= 11:
   a *= 2
   a -= 5","14","2"
"","html-keyboard-response","306","905817","0.0-9.0-10.0-3.0-0.0","765","<div><div style=""""><a style=""white-space:pre-wrap;""> while a <= 11:
   a *= 2
   a -= 5</a><a style=""""></a></div></div>","9","9","1","35","while a <= 11:
   a *= 2
   a -= 5","9","3"
"","html-keyboard-response","307","907089","0.0-9.0-10.0-4.0-0.0","764","<div><div style=""""><a style=""white-space:pre-wrap;""> while a <= 11:
   a *= 2
   a -= 5</a><a style=""""></a></div></div>","18","18","1","35","while a <= 11:
   a *= 2
   a -= 5","18","4"
"","html-keyboard-response","308","907953","0.0-9.0-10.0-5.0-0.0","361","<div><div style=""""><a style=""white-space:pre-wrap;""> while a <= 11:
   a *= 2
   a -= 5</a><a style=""""></a></div></div>","13","13","1","35","while a <= 11:
   a *= 2
   a -= 5","13","5"
"","html-keyboard-response","309","909161","0.0-9.0-10.0-6.0-0.0","691","<div><div style=""""><a style=""white-space:pre-wrap;""> while a <= 11:
   a *= 2
   a -= 5</a><a style=""""></a></div></div>","backspace","backspace","1","35","while a <= 11:
   a *= 2
   a -= 5","backspace","6"
"","html-keyboard-response","310","913953","0.0-9.0-11.0-0.0-0.0","4279","<div><div style=""""><a style=""white-space:pre-wrap;""> for i in [1, 2, 3]:
   a += 4
   a -= 7</a><a style=""""></a></div></div>","17","17","1","36","for i in [1, 2, 3]:
   a += 4
   a -= 7","17","0"
"","html-keyboard-response","311","915137","0.0-9.0-11.0-1.0-0.0","676","<div><div style=""""><a style=""white-space:pre-wrap;""> for i in [1, 2, 3]:
   a += 4
   a -= 7</a><a style=""""></a></div></div>","10","10","1","36","for i in [1, 2, 3]:
   a += 4
   a -= 7","10","1"
"","html-keyboard-response","312","916521","0.0-9.0-11.0-2.0-0.0","871","<div><div style=""""><a style=""white-space:pre-wrap;""> for i in [1, 2, 3]:
   a += 4
   a -= 7</a><a style=""""></a></div></div>","14","14","1","36","for i in [1, 2, 3]:
   a += 4
   a -= 7","14","2"
"","html-keyboard-response","313","918145","0.0-9.0-11.0-3.0-0.0","1110","<div><div style=""""><a style=""white-space:pre-wrap;""> for i in [1, 2, 3]:
   a += 4
   a -= 7</a><a style=""""></a></div></div>","7","7","1","36","for i in [1, 2, 3]:
   a += 4
   a -= 7","7","3"
"","html-keyboard-response","314","920729","0.0-9.0-11.0-4.0-0.0","2069","<div><div style=""""><a style=""white-space:pre-wrap;""> for i in [1, 2, 3]:
   a += 4
   a -= 7</a><a style=""""></a></div></div>","11","11","1","36","for i in [1, 2, 3]:
   a += 4
   a -= 7","11","4"
"","html-keyboard-response","315","921585","0.0-9.0-11.0-5.0-0.0","352","<div><div style=""""><a style=""white-space:pre-wrap;""> for i in [1, 2, 3]:
   a += 4
   a -= 7</a><a style=""""></a></div></div>","4","4","1","36","for i in [1, 2, 3]:
   a += 4
   a -= 7","4","5"
"","html-keyboard-response","316","923329","0.0-9.0-11.0-6.0-0.0","1234","<div><div style=""""><a style=""white-space:pre-wrap;""> for i in [1, 2, 3]:
   a += 4
   a -= 7</a><a style=""""></a></div></div>","backspace","backspace","1","36","for i in [1, 2, 3]:
   a += 4
   a -= 7","backspace","6"
"","html-keyboard-response","317","926209","0.0-10.0-1.0","2364","<p style=""font-size: 25px;"">Please press space to start the next program<br>>>>>>></p>"," ","","","","","",""
"","html-keyboard-response","318","928001","0.0-10.0-2.0","1791","<div><div style="" font-size:25px; color:green;""><a style=""white-space:pre-wrap;""> a = 11</a><a style=""""></a></div></div>","","null","","64","a = 11","",""
"","html-keyboard-response","319","931305","0.0-10.0-4.0-0.0-0.0","2794","<div><div style=""""><a style=""white-space:pre-wrap;""> while a >= 5:
   a += 4
   a /= 3</a><a style=""""></a></div></div>","15","15","1","65","while a >= 5:
   a += 4
   a /= 3","15","0"
"","html-keyboard-response","320","932425","0.0-10.0-4.0-1.0-0.0","607","<div><div style=""""><a style=""white-space:pre-wrap;""> while a >= 5:
   a += 4
   a /= 3</a><a style=""""></a></div></div>","5","5","1","65","while a >= 5:
   a += 4
   a /= 3","5","1"
"","html-keyboard-response","321","936521","0.0-10.0-4.0-2.0-0.0","3591","<div><div style=""""><a style=""white-space:pre-wrap;""> while a >= 5:
   a += 4
   a /= 3</a><a style=""""></a></div></div>","9","9","1","65","while a >= 5:
   a += 4
   a /= 3","9","2"
"","html-keyboard-response","322","937776","0.0-10.0-4.0-3.0-0.0","751","<div><div style=""""><a style=""white-space:pre-wrap;""> while a >= 5:
   a += 4
   a /= 3</a><a style=""""></a></div></div>","3","3","1","65","while a >= 5:
   a += 4
   a /= 3","3","3"
"","html-keyboard-response","323","938993","0.0-10.0-4.0-4.0-0.0","715","<div><div style=""""><a style=""white-space:pre-wrap;""> while a >= 5:
   a += 4
   a /= 3</a><a style=""""></a></div></div>","backspace","backspace","1","65","while a >= 5:
   a += 4
   a /= 3","backspace","4"
"","html-keyboard-response","324","946696","0.0-10.0-5.0-0.0-0.0","7192","<div><div style=""""><a style=""white-space:pre-wrap;""> while a <= 11:
   a = round_down(a*2.5)</a><a style=""""></a></div></div>","7","7","1","66","while a <= 11:
   a = round_down(a*2.5)","7","0"
"","html-keyboard-response","325","957225","0.0-10.0-5.0-1.0-0.0","10020","<div><div style=""""><a style=""white-space:pre-wrap;""> while a <= 11:
   a = round_down(a*2.5)</a><a style=""""></a></div></div>","17","17","1","66","while a <= 11:
   a = round_down(a*2.5)","17","1"
"","html-keyboard-response","326","959953","0.0-10.0-5.0-2.0-0.0","2213","<div><div style=""""><a style=""white-space:pre-wrap;""> while a <= 11:
   a = round_down(a*2.5)</a><a style=""""></a></div></div>","backspace","backspace","1","66","while a <= 11:
   a = round_down(a*2.5)","backspace","2"
"","html-keyboard-response","327","968297","0.0-10.0-6.0-0.0-0.0","7833","<div><div style=""""><a style=""white-space:pre-wrap;""> for i in [1, 2, 3, 4]:
   a = average(a,1)</a><a style=""""></a></div></div>","9","9","1","67","for i in [1, 2, 3, 4]:
   a = average(a,1)","9","0"
"","html-keyboard-response","328","970473","0.0-10.0-6.0-1.0-0.0","1669","<div><div style=""""><a style=""white-space:pre-wrap;""> for i in [1, 2, 3, 4]:
   a = average(a,1)</a><a style=""""></a></div></div>","5","5","1","67","for i in [1, 2, 3, 4]:
   a = average(a,1)","5","1"
"","html-keyboard-response","329","972945","0.0-10.0-6.0-2.0-0.0","1956","<div><div style=""""><a style=""white-space:pre-wrap;""> for i in [1, 2, 3, 4]:
   a = average(a,1)</a><a style=""""></a></div></div>","3","3","1","67","for i in [1, 2, 3, 4]:
   a = average(a,1)","3","2"
"","html-keyboard-response","330","974705","0.0-10.0-6.0-3.0-0.0","1248","<div><div style=""""><a style=""white-space:pre-wrap;""> for i in [1, 2, 3, 4]:
   a = average(a,1)</a><a style=""""></a></div></div>","2","2","1","67","for i in [1, 2, 3, 4]:
   a = average(a,1)","2","3"
"","html-keyboard-response","331","975497","0.0-10.0-6.0-4.0-0.0","277","<div><div style=""""><a style=""white-space:pre-wrap;""> for i in [1, 2, 3, 4]:
   a = average(a,1)</a><a style=""""></a></div></div>","backspace","backspace","1","67","for i in [1, 2, 3, 4]:
   a = average(a,1)","backspace","4"
"","html-keyboard-response","332","979433","0.0-10.0-7.0-0.0-0.0","3428","<div><div style=""""><a style=""white-space:pre-wrap;""> while a <= 10:
   a *= 3
   a -= 1</a><a style=""""></a></div></div>","6","6","1","68","while a <= 10:
   a *= 3
   a -= 1","6","0"
"","html-keyboard-response","333","981993","0.0-10.0-7.0-1.0-0.0","2048","<div><div style=""""><a style=""white-space:pre-wrap;""> while a <= 10:
   a *= 3
   a -= 1</a><a style=""""></a></div></div>","5","5","1","68","while a <= 10:
   a *= 3
   a -= 1","5","1"
"","html-keyboard-response","334","986105","0.0-10.0-7.0-2.0-0.0","3602","<div><div style=""""><a style=""white-space:pre-wrap;""> while a <= 10:
   a *= 3
   a -= 1</a><a style=""""></a></div></div>","15","15","1","68","while a <= 10:
   a *= 3
   a -= 1","15","2"
"","html-keyboard-response","335","987048","0.0-10.0-7.0-3.0-0.0","439","<div><div style=""""><a style=""white-space:pre-wrap;""> while a <= 10:
   a *= 3
   a -= 1</a><a style=""""></a></div></div>","14","14","1","68","while a <= 10:
   a *= 3
   a -= 1","14","3"
"","html-keyboard-response","336","988096","0.0-10.0-7.0-4.0-0.0","531","<div><div style=""""><a style=""white-space:pre-wrap;""> while a <= 10:
   a *= 3
   a -= 1</a><a style=""""></a></div></div>","backspace","backspace","1","68","while a <= 10:
   a *= 3
   a -= 1","backspace","4"
"","html-keyboard-response","337","991608","0.0-10.0-8.0-0.0-0.0","2999","<div><div style=""""><a style=""white-space:pre-wrap;""> while a >= 4:
   a -= 5
   a += 1</a><a style=""""></a></div></div>","9","9","1","69","while a >= 4:
   a -= 5
   a += 1","9","0"
"","html-keyboard-response","338","993016","0.0-10.0-8.0-1.0-0.0","892","<div><div style=""""><a style=""white-space:pre-wrap;""> while a >= 4:
   a -= 5
   a += 1</a><a style=""""></a></div></div>","10","10","1","69","while a >= 4:
   a -= 5
   a += 1","10","1"
"","html-keyboard-response","339","994872","0.0-10.0-8.0-2.0-0.0","1341","<div><div style=""""><a style=""white-space:pre-wrap;""> while a >= 4:
   a -= 5
   a += 1</a><a style=""""></a></div></div>","5","5","1","69","while a >= 4:
   a -= 5
   a += 1","5","2"
"","html-keyboard-response","340","996456","0.0-10.0-8.0-3.0-0.0","1069","<div><div style=""""><a style=""white-space:pre-wrap;""> while a >= 4:
   a -= 5
   a += 1</a><a style=""""></a></div></div>","6","6","1","69","while a >= 4:
   a -= 5
   a += 1","6","3"
"","html-keyboard-response","341","1000272","0.0-10.0-8.0-4.0-0.0","3299","<div><div style=""""><a style=""white-space:pre-wrap;""> while a >= 4:
   a -= 5
   a += 1</a><a style=""""></a></div></div>","1","1","1","69","while a >= 4:
   a -= 5
   a += 1","1","4"
"","html-keyboard-response","342","1001240","0.0-10.0-8.0-5.0-0.0","465","<div><div style=""""><a style=""white-space:pre-wrap;""> while a >= 4:
   a -= 5
   a += 1</a><a style=""""></a></div></div>","2","2","1","69","while a >= 4:
   a -= 5
   a += 1","2","5"
"","html-keyboard-response","343","1001881","0.0-10.0-8.0-6.0-0.0","131","<div><div style=""""><a style=""white-space:pre-wrap;""> while a >= 4:
   a -= 5
   a += 1</a><a style=""""></a></div></div>","backspace","backspace","1","69","while a >= 4:
   a -= 5
   a += 1","backspace","6"
"","html-keyboard-response","344","1005952","0.0-10.0-9.0-0.0-0.0","3559","<div><div style=""""><a style=""white-space:pre-wrap;""> for i in [1, 2]:
   a *= 3</a><a style=""""></a></div></div>","6","6","1","70","for i in [1, 2]:
   a *= 3","6","0"
"","html-keyboard-response","345","1006800","0.0-10.0-9.0-1.0-0.0","336","<div><div style=""""><a style=""white-space:pre-wrap;""> for i in [1, 2]:
   a *= 3</a><a style=""""></a></div></div>","18","18","1","70","for i in [1, 2]:
   a *= 3","18","1"
"","html-keyboard-response","346","1007536","0.0-10.0-9.0-2.0-0.0","229","<div><div style=""""><a style=""white-space:pre-wrap;""> for i in [1, 2]:
   a *= 3</a><a style=""""></a></div></div>","backspace","backspace","1","70","for i in [1, 2]:
   a *= 3","backspace","2"
"","html-keyboard-response","347","1012736","0.0-10.0-10.0-0.0-0.0","4695","<div><div style=""""><a style=""white-space:pre-wrap;""> while a >= 11:
   a /= 3
   a *= 2</a><a style=""""></a></div></div>","6","6","1","71","while a >= 11:
   a /= 3
   a *= 2","6","0"
"","html-keyboard-response","348","1013728","0.0-10.0-10.0-1.0-0.0","486","<div><div style=""""><a style=""white-space:pre-wrap;""> while a >= 11:
   a /= 3
   a *= 2</a><a style=""""></a></div></div>","12","12","1","71","while a >= 11:
   a /= 3
   a *= 2","12","1"
"","html-keyboard-response","349","1015488","0.0-10.0-10.0-2.0-0.0","1243","<div><div style=""""><a style=""white-space:pre-wrap;""> while a >= 11:
   a /= 3
   a *= 2</a><a style=""""></a></div></div>","backspace","4","0","71","while a >= 11:
   a /= 3
   a *= 2","4","2"
"","html-keyboard-response","351","1022008","0.0-10.0-10.0-3.0-0.0","2490","<div><div style=""""><a style=""white-space:pre-wrap;""> while a >= 11:
   a /= 3
   a *= 2</a><a style=""""></a></div></div>","8","8","1","71","while a >= 11:
   a /= 3
   a *= 2","8","3"
"","html-keyboard-response","352","1024281","0.0-10.0-10.0-4.0-0.0","1763","<div><div style=""""><a style=""white-space:pre-wrap;""> while a >= 11:
   a /= 3
   a *= 2</a><a style=""""></a></div></div>","backspace","backspace","1","71","while a >= 11:
   a /= 3
   a *= 2","backspace","4"
"","html-keyboard-response","353","1028224","0.0-10.0-11.0-0.0-0.0","3440","<div><div style=""""><a style=""white-space:pre-wrap;""> while a <= 17:
   a += 4</a><a style=""""></a></div></div>","12","12","1","72","while a <= 17:
   a += 4","12","0"
"","html-keyboard-response","354","1029455","0.0-10.0-11.0-1.0-0.0","727","<div><div style=""""><a style=""white-space:pre-wrap;""> while a <= 17:
   a += 4</a><a style=""""></a></div></div>","16","16","1","72","while a <= 17:
   a += 4","16","1"
"","html-keyboard-response","355","1030480","0.0-10.0-11.0-2.0-0.0","513","<div><div style=""""><a style=""white-space:pre-wrap;""> while a <= 17:
   a += 4</a><a style=""""></a></div></div>","20","20","1","72","while a <= 17:
   a += 4","20","2"
"","html-keyboard-response","356","1031416","0.0-10.0-11.0-3.0-0.0","419","<div><div style=""""><a style=""white-space:pre-wrap;""> while a <= 17:
   a += 4</a><a style=""""></a></div></div>","backspace","backspace","1","72","while a <= 17:
   a += 4","backspace","3"
"","html-keyboard-response","357","1035161","0.0-11.0-1.0","3238","<p style=""font-size: 25px;"">Please press space to start the next program<br>>>>>>></p>"," ","","","","","",""
"","html-keyboard-response","358","1036888","0.0-11.0-2.0","1726","<div><div style="" font-size:25px; color:green;""><a style=""white-space:pre-wrap;""> a = 18</a><a style=""""></a></div></div>","","null","","19","a = 18","",""
"","html-keyboard-response","359","1039216","0.0-11.0-4.0-0.0-0.0","1819","<div><div style=""""><a style=""white-space:pre-wrap;""> for i in [1, 2]:
   a /= 3
   a *= 2</a><a style=""""></a></div></div>","6","6","1","20","for i in [1, 2]:
   a /= 3
   a *= 2","6","0"
"","html-keyboard-response","360","1040792","0.0-11.0-4.0-1.0-0.0","1068","<div><div style=""""><a style=""white-space:pre-wrap;""> for i in [1, 2]:
   a /= 3
   a *= 2</a><a style=""""></a></div></div>","12","12","1","20","for i in [1, 2]:
   a /= 3
   a *= 2","12","1"
"","html-keyboard-response","361","1043240","0.0-11.0-4.0-2.0-0.0","1943","<div><div style=""""><a style=""white-space:pre-wrap;""> for i in [1, 2]:
   a /= 3
   a *= 2</a><a style=""""></a></div></div>","4","4","1","20","for i in [1, 2]:
   a /= 3
   a *= 2","4","2"
"","html-keyboard-response","362","1045425","0.0-11.0-4.0-3.0-0.0","1668","<div><div style=""""><a style=""white-space:pre-wrap;""> for i in [1, 2]:
   a /= 3
   a *= 2</a><a style=""""></a></div></div>","8","8","1","20","for i in [1, 2]:
   a /= 3
   a *= 2","8","3"
"","html-keyboard-response","363","1046264","0.0-11.0-4.0-4.0-0.0","327","<div><div style=""""><a style=""white-space:pre-wrap;""> for i in [1, 2]:
   a /= 3
   a *= 2</a><a style=""""></a></div></div>","backspace","backspace","1","20","for i in [1, 2]:
   a /= 3
   a *= 2","backspace","4"
"","html-keyboard-response","364","1049288","0.0-11.0-5.0-0.0-0.0","2517","<div><div style=""""><a style=""white-space:pre-wrap;""> for i in [1, 2, 3]:
   a /= 2</a><a style=""""></a></div></div>","4","4","1","21","for i in [1, 2, 3]:
   a /= 2","4","0"
"","html-keyboard-response","365","1050152","0.0-11.0-5.0-1.0-0.0","355","<div><div style=""""><a style=""white-space:pre-wrap;""> for i in [1, 2, 3]:
   a /= 2</a><a style=""""></a></div></div>","2","2","1","21","for i in [1, 2, 3]:
   a /= 2","2","1"
"","html-keyboard-response","366","1050936","0.0-11.0-5.0-2.0-0.0","275","<div><div style=""""><a style=""white-space:pre-wrap;""> for i in [1, 2, 3]:
   a /= 2</a><a style=""""></a></div></div>","1","1","1","21","for i in [1, 2, 3]:
   a /= 2","1","2"
"","html-keyboard-response","367","1051673","0.0-11.0-5.0-3.0-0.0","227","<div><div style=""""><a style=""white-space:pre-wrap;""> for i in [1, 2, 3]:
   a /= 2</a><a style=""""></a></div></div>","backspace","backspace","1","21","for i in [1, 2, 3]:
   a /= 2","backspace","3"
"","html-keyboard-response","368","1054921","0.0-11.0-6.0-0.0-0.0","2742","<div><div style=""""><a style=""white-space:pre-wrap;""> while a <= 7:
   a += 2</a><a style=""""></a></div></div>","3","3","1","22","while a <= 7:
   a += 2","3","0"
"","html-keyboard-response","369","1056929","0.0-11.0-6.0-1.0-0.0","1500","<div><div style=""""><a style=""white-space:pre-wrap;""> while a <= 7:
   a += 2</a><a style=""""></a></div></div>","5","5","1","22","while a <= 7:
   a += 2","5","1"
"","html-keyboard-response","370","1058505","0.0-11.0-6.0-2.0-0.0","1066","<div><div style=""""><a style=""white-space:pre-wrap;""> while a <= 7:
   a += 2</a><a style=""""></a></div></div>","7","7","1","22","while a <= 7:
   a += 2","7","2"
"","html-keyboard-response","371","1059425","0.0-11.0-6.0-3.0-0.0","404","<div><div style=""""><a style=""white-space:pre-wrap;""> while a <= 7:
   a += 2</a><a style=""""></a></div></div>","9","9","1","22","while a <= 7:
   a += 2","9","3"
"","html-keyboard-response","372","1060481","0.0-11.0-6.0-4.0-0.0","544","<div><div style=""""><a style=""white-space:pre-wrap;""> while a <= 7:
   a += 2</a><a style=""""></a></div></div>","backspace","backspace","1","22","while a <= 7:
   a += 2","backspace","4"
"","html-keyboard-response","373","1063921","0.0-11.0-7.0-0.0-0.0","2935","<div><div style=""""><a style=""white-space:pre-wrap;""> for i in [1, 2]:
   a += 9
   a /= 3</a><a style=""""></a></div></div>","18","18","1","23","for i in [1, 2]:
   a += 9
   a /= 3","18","0"
"","html-keyboard-response","374","1065193","0.0-11.0-7.0-1.0-0.0","760","<div><div style=""""><a style=""white-space:pre-wrap;""> for i in [1, 2]:
   a += 9
   a /= 3</a><a style=""""></a></div></div>","6","6","1","23","for i in [1, 2]:
   a += 9
   a /= 3","6","1"
"","html-keyboard-response","375","1067049","0.0-11.0-7.0-2.0-0.0","1339","<div><div style=""""><a style=""white-space:pre-wrap;""> for i in [1, 2]:
   a += 9
   a /= 3</a><a style=""""></a></div></div>","15","15","1","23","for i in [1, 2]:
   a += 9
   a /= 3","15","2"
"","html-keyboard-response","376","1067761","0.0-11.0-7.0-3.0-0.0","196","<div><div style=""""><a style=""white-space:pre-wrap;""> for i in [1, 2]:
   a += 9
   a /= 3</a><a style=""""></a></div></div>","5","5","1","23","for i in [1, 2]:
   a += 9
   a /= 3","5","3"
"","html-keyboard-response","377","1068481","0.0-11.0-7.0-4.0-0.0","204","<div><div style=""""><a style=""white-space:pre-wrap;""> for i in [1, 2]:
   a += 9
   a /= 3</a><a style=""""></a></div></div>","backspace","backspace","1","23","for i in [1, 2]:
   a += 9
   a /= 3","backspace","4"
"","html-keyboard-response","378","1071313","0.0-11.0-8.0-0.0-0.0","2315","<div><div style=""""><a style=""white-space:pre-wrap;""> while a <= 11:
   a = round_down(a*1.5)</a><a style=""""></a></div></div>","7","7","1","24","while a <= 11:
   a = round_down(a*1.5)","7","0"
"","html-keyboard-response","379","1076449","0.0-11.0-8.0-1.0-0.0","4626","<div><div style=""""><a style=""white-space:pre-wrap;""> while a <= 11:
   a = round_down(a*1.5)</a><a style=""""></a></div></div>","10","10","1","24","while a <= 11:
   a = round_down(a*1.5)","10","1"
"","html-keyboard-response","380","1078249","0.0-11.0-8.0-2.0-0.0","1282","<div><div style=""""><a style=""white-space:pre-wrap;""> while a <= 11:
   a = round_down(a*1.5)</a><a style=""""></a></div></div>","15","15","1","24","while a <= 11:
   a = round_down(a*1.5)","15","2"
"","html-keyboard-response","381","1079497","0.0-11.0-8.0-3.0-0.0","738","<div><div style=""""><a style=""white-space:pre-wrap;""> while a <= 11:
