"success","trial_type","trial_index","time_elapsed","internal_node_id","rt","stimulus","response","expected_response","correct","uid","text1","correct_response","loop_step"
"true","fullscreen","0","13102","0.0-0.0","","","","","","","","",""
"","html-keyboard-response","1","14763","0.0-1.0","1658","Please make sure that your keyboard is in English mode. Press 'A' to continue","a","","","","","",""
"","html-keyboard-response","2","19124","0.0-2.0-1.0","4359","<p style=""font-size: 25px;"">Please press space to start the next program<br>>>>>>></p>"," ","","","","","",""
"","html-keyboard-response","3","22412","0.0-2.0-2.0","3286","<div><div style="" font-size:25px; color:green;""><a style=""white-space:pre-wrap;""> a = 7</a><a style=""""></a></div></div>","","null","","10","a = 7","",""
"","html-keyboard-response","4","25700","0.0-2.0-4.0-0.0-0.0","2783","<div><div style=""""><a style=""white-space:pre-wrap;""> while a <= 14:
   a *= 2
   a -= 4</a><a style=""""></a></div></div>","14","14","1","11","while a <= 14:
   a *= 2
   a -= 4","14","0"
"","html-keyboard-response","5","26652","0.0-2.0-4.0-1.0-0.0","440","<div><div style=""""><a style=""white-space:pre-wrap;""> while a <= 14:
   a *= 2
   a -= 4</a><a style=""""></a></div></div>","10","10","1","11","while a <= 14:
   a *= 2
   a -= 4","10","1"
"","html-keyboard-response","6","28364","0.0-2.0-4.0-2.0-0.0","1203","<div><div style=""""><a style=""white-space:pre-wrap;""> while a <= 14:
   a *= 2
   a -= 4</a><a style=""""></a></div></div>","20","20","1","11","while a <= 14:
   a *= 2
   a -= 4","20","2"
"","html-keyboard-response","7","30284","0.0-2.0-4.0-3.0-0.0","1418","<div><div style=""""><a style=""white-space:pre-wrap;""> while a <= 14:
   a *= 2
   a -= 4</a><a style=""""></a></div></div>","16","16","1","11","while a <= 14:
   a *= 2
   a -= 4","16","3"
"","html-keyboard-response","8","31044","0.0-2.0-4.0-4.0-0.0","252","<div><div style=""""><a style=""white-space:pre-wrap;""> while a <= 14:
   a *= 2
   a -= 4</a><a style=""""></a></div></div>","backspace","backspace","1","11","while a <= 14:
   a *= 2
   a -= 4","backspace","4"
"","html-keyboard-response","9","35132","0.0-2.0-5.0-0.0-0.0","3583","<div><div style=""""><a style=""white-space:pre-wrap;""> for i in [1, 2, 3]:
   a /= 4
   a *= 2</a><a style=""""></a></div></div>","4","4","1","12","for i in [1, 2, 3]:
   a /= 4
   a *= 2","4","0"
"","html-keyboard-response","10","35980","0.0-2.0-5.0-1.0-0.0","342","<div><div style=""""><a style=""white-space:pre-wrap;""> for i in [1, 2, 3]:
   a /= 4
   a *= 2</a><a style=""""></a></div></div>","8","8","1","12","for i in [1, 2, 3]:
   a /= 4
   a *= 2","8","1"
"","html-keyboard-response","11","38972","0.0-2.0-5.0-2.0-0.0","2480","<div><div style=""""><a style=""white-space:pre-wrap;""> for i in [1, 2, 3]:
   a /= 4
   a *= 2</a><a style=""""></a></div></div>","2","2","1","12","for i in [1, 2, 3]:
   a /= 4
   a *= 2","2","2"
"","html-keyboard-response","12","40252","0.0-2.0-5.0-3.0-0.0","775","<div><div style=""""><a style=""white-space:pre-wrap;""> for i in [1, 2, 3]:
   a /= 4
   a *= 2</a><a style=""""></a></div></div>","4","4","1","12","for i in [1, 2, 3]:
   a /= 4
   a *= 2","4","3"
"","html-keyboard-response","13","41052","0.0-2.0-5.0-4.0-0.0","297","<div><div style=""""><a style=""white-space:pre-wrap;""> for i in [1, 2, 3]:
   a /= 4
   a *= 2</a><a style=""""></a></div></div>","1","1","1","12","for i in [1, 2, 3]:
   a /= 4
   a *= 2","1","4"
"","html-keyboard-response","14","41644","0.0-2.0-5.0-5.0-0.0","77","<div><div style=""""><a style=""white-space:pre-wrap;""> for i in [1, 2, 3]:
   a /= 4
   a *= 2</a><a style=""""></a></div></div>","2","2","1","12","for i in [1, 2, 3]:
   a /= 4
   a *= 2","2","5"
"","html-keyboard-response","15","42204","0.0-2.0-5.0-6.0-0.0","50","<div><div style=""""><a style=""white-space:pre-wrap;""> for i in [1, 2, 3]:
   a /= 4
   a *= 2</a><a style=""""></a></div></div>","backspace","backspace","1","12","for i in [1, 2, 3]:
   a /= 4
   a *= 2","backspace","6"
"","html-keyboard-response","16","47076","0.0-2.0-6.0-0.0-0.0","4360","<div><div style=""""><a style=""white-space:pre-wrap;""> for i in [1, 2]:
   a = round_up(a*2.5)</a><a style=""""></a></div></div>","5","5","1","13","for i in [1, 2]:
   a = round_up(a*2.5)","5","0"
"","html-keyboard-response","17","51444","0.0-2.0-6.0-1.0-0.0","3860","<div><div style=""""><a style=""white-space:pre-wrap;""> for i in [1, 2]:
   a = round_up(a*2.5)</a><a style=""""></a></div></div>","13","13","1","13","for i in [1, 2]:
   a = round_up(a*2.5)","13","1"
"","html-keyboard-response","18","52100","0.0-2.0-6.0-2.0-0.0","153","<div><div style=""""><a style=""white-space:pre-wrap;""> for i in [1, 2]:
   a = round_up(a*2.5)</a><a style=""""></a></div></div>","backspace","backspace","1","13","for i in [1, 2]:
   a = round_up(a*2.5)","backspace","2"
"","html-keyboard-response","19","55644","0.0-2.0-7.0-0.0-0.0","3027","<div><div style=""""><a style=""white-space:pre-wrap;""> for i in [1, 2, 3]:
   a = average(a,5)</a><a style=""""></a></div></div>","9","9","1","14","for i in [1, 2, 3]:
   a = average(a,5)","9","0"
"","html-keyboard-response","20","57556","0.0-2.0-7.0-1.0-0.0","1408","<div><div style=""""><a style=""white-space:pre-wrap;""> for i in [1, 2, 3]:
   a = average(a,5)</a><a style=""""></a></div></div>","7","7","1","14","for i in [1, 2, 3]:
   a = average(a,5)","7","1"
"","html-keyboard-response","21","59292","0.0-2.0-7.0-2.0-0.0","1231","<div><div style=""""><a style=""white-space:pre-wrap;""> for i in [1, 2, 3]:
   a = average(a,5)</a><a style=""""></a></div></div>","6","6","1","14","for i in [1, 2, 3]:
   a = average(a,5)","6","2"
"","html-keyboard-response","22","60004","0.0-2.0-7.0-3.0-0.0","198","<div><div style=""""><a style=""white-space:pre-wrap;""> for i in [1, 2, 3]:
   a = average(a,5)</a><a style=""""></a></div></div>","backspace","backspace","1","14","for i in [1, 2, 3]:
   a = average(a,5)","backspace","3"
"","html-keyboard-response","23","63213","0.0-2.0-8.0-0.0-0.0","2693","<div><div style=""""><a style=""white-space:pre-wrap;""> for i in [1, 2]:
   a += 2
   a /= 2</a><a style=""""></a></div></div>","8","8","1","15","for i in [1, 2]:
   a += 2
   a /= 2","8","0"
"","html-keyboard-response","24","65412","0.0-2.0-8.0-1.0-0.0","1690","<div><div style=""""><a style=""white-space:pre-wrap;""> for i in [1, 2]:
   a += 2
   a /= 2</a><a style=""""></a></div></div>","4","4","1","15","for i in [1, 2]:
   a += 2
   a /= 2","4","1"
"","html-keyboard-response","25","67276","0.0-2.0-8.0-2.0-0.0","1361","<div><div style=""""><a style=""white-space:pre-wrap;""> for i in [1, 2]:
   a += 2
   a /= 2</a><a style=""""></a></div></div>","6","6","1","15","for i in [1, 2]:
   a += 2
   a /= 2","6","2"
"","html-keyboard-response","26","67972","0.0-2.0-8.0-3.0-0.0","190","<div><div style=""""><a style=""white-space:pre-wrap;""> for i in [1, 2]:
   a += 2
   a /= 2</a><a style=""""></a></div></div>","3","3","1","15","for i in [1, 2]:
   a += 2
   a /= 2","3","3"
"","html-keyboard-response","27","68604","0.0-2.0-8.0-4.0-0.0","118","<div><div style=""""><a style=""white-space:pre-wrap;""> for i in [1, 2]:
   a += 2
   a /= 2</a><a style=""""></a></div></div>","backspace","backspace","1","15","for i in [1, 2]:
   a += 2
   a /= 2","backspace","4"
"","html-keyboard-response","28","72188","0.0-2.0-9.0-0.0-0.0","3080","<div><div style=""""><a style=""white-space:pre-wrap;""> while a <= 9:
   a *= 2</a><a style=""""></a></div></div>","6","6","1","16","while a <= 9:
   a *= 2","6","0"
"","html-keyboard-response","29","73076","0.0-2.0-9.0-1.0-0.0","373","<div><div style=""""><a style=""white-space:pre-wrap;""> while a <= 9:
   a *= 2</a><a style=""""></a></div></div>","9","12","0","16","while a <= 9:
   a *= 2","12","1"
"","html-keyboard-response","31","78674","0.0-2.0-9.0-2.0-0.0","1581","<div><div style=""""><a style=""white-space:pre-wrap;""> while a <= 9:
   a *= 2</a><a style=""""></a></div></div>","backspace","backspace","1","16","while a <= 9:
   a *= 2","backspace","2"
"","html-keyboard-response","32","82244","0.0-2.0-10.0-0.0-0.0","3062","<div><div style=""""><a style=""white-space:pre-wrap;""> while a <= 14:
   a += 6
   a -= 4</a><a style=""""></a></div></div>","18","18","1","17","while a <= 14:
   a += 6
   a -= 4","18","0"
"","html-keyboard-response","33","84050","0.0-2.0-10.0-1.0-0.0","1292","<div><div style=""""><a style=""white-space:pre-wrap;""> while a <= 14:
   a += 6
   a -= 4</a><a style=""""></a></div></div>","14","14","1","17","while a <= 14:
   a += 6
   a -= 4","14","1"
"","html-keyboard-response","34","88203","0.0-2.0-10.0-2.0-0.0","3638","<div><div style=""""><a style=""white-space:pre-wrap;""> while a <= 14:
   a += 6
   a -= 4</a><a style=""""></a></div></div>","20","20","1","17","while a <= 14:
   a += 6
   a -= 4","20","2"
"","html-keyboard-response","35","89690","0.0-2.0-10.0-3.0-0.0","982","<div><div style=""""><a style=""white-space:pre-wrap;""> while a <= 14:
   a += 6
   a -= 4</a><a style=""""></a></div></div>","16","16","1","17","while a <= 14:
   a += 6
   a -= 4","16","3"
"","html-keyboard-response","36","90730","0.0-2.0-10.0-4.0-0.0","533","<div><div style=""""><a style=""white-space:pre-wrap;""> while a <= 14:
   a += 6
   a -= 4</a><a style=""""></a></div></div>","backspace","backspace","1","17","while a <= 14:
   a += 6
   a -= 4","backspace","4"
"","html-keyboard-response","37","93274","0.0-2.0-11.0-0.0-0.0","2029","<div><div style=""""><a style=""white-space:pre-wrap;""> for i in [1, 2, 3, 4]:
   a -= 3</a><a style=""""></a></div></div>","13","13","1","18","for i in [1, 2, 3, 4]:
   a -= 3","13","0"
"","html-keyboard-response","38","94794","0.0-2.0-11.0-1.0-0.0","1019","<div><div style=""""><a style=""white-space:pre-wrap;""> for i in [1, 2, 3, 4]:
   a -= 3</a><a style=""""></a></div></div>","10","10","1","18","for i in [1, 2, 3, 4]:
   a -= 3","10","1"
"","html-keyboard-response","39","95786","0.0-2.0-11.0-2.0-0.0","483","<div><div style=""""><a style=""white-space:pre-wrap;""> for i in [1, 2, 3, 4]:
   a -= 3</a><a style=""""></a></div></div>","7","7","1","18","for i in [1, 2, 3, 4]:
   a -= 3","7","2"
"","html-keyboard-response","40","96666","0.0-2.0-11.0-3.0-0.0","368","<div><div style=""""><a style=""white-space:pre-wrap;""> for i in [1, 2, 3, 4]:
   a -= 3</a><a style=""""></a></div></div>","4","4","1","18","for i in [1, 2, 3, 4]:
   a -= 3","4","3"
"","html-keyboard-response","41","97482","0.0-2.0-11.0-4.0-0.0","309","<div><div style=""""><a style=""white-space:pre-wrap;""> for i in [1, 2, 3, 4]:
   a -= 3</a><a style=""""></a></div></div>","backspace","backspace","1","18","for i in [1, 2, 3, 4]:
   a -= 3","backspace","4"
"","html-keyboard-response","42","101547","0.0-3.0-1.0","3548","<p style=""font-size: 25px;"">Please press space to start the next program<br>>>>>>></p>"," ","","","","","",""
"","html-keyboard-response","43","103850","0.0-3.0-2.0","2303","<div><div style="" font-size:25px; color:green;""><a style=""white-space:pre-wrap;""> a = 18</a><a style=""""></a></div></div>","","null","","19","a = 18","",""
"","html-keyboard-response","44","106970","0.0-3.0-4.0-0.0-0.0","2609","<div><div style=""""><a style=""white-space:pre-wrap;""> while a >= 10:
   a /= 3
   a *= 2</a><a style=""""></a></div></div>","6","6","1","20","while a >= 10:
   a /= 3
   a *= 2","6","0"
"","html-keyboard-response","45","108250","0.0-3.0-4.0-1.0-0.0","767","<div><div style=""""><a style=""white-space:pre-wrap;""> while a >= 10:
   a /= 3
   a *= 2</a><a style=""""></a></div></div>","12","12","1","20","while a >= 10:
   a /= 3
   a *= 2","12","1"
"","html-keyboard-response","46","109740","0.0-3.0-4.0-2.0-0.0","988","<div><div style=""""><a style=""white-space:pre-wrap;""> while a >= 10:
   a /= 3
   a *= 2</a><a style=""""></a></div></div>","4","4","1","20","while a >= 10:
   a /= 3
   a *= 2","4","2"
"","html-keyboard-response","47","112196","0.0-3.0-4.0-3.0-0.0","1952","<div><div style=""""><a style=""white-space:pre-wrap;""> while a >= 10:
   a /= 3
   a *= 2</a><a style=""""></a></div></div>","8","8","1","20","while a >= 10:
   a /= 3
   a *= 2","8","3"
"","html-keyboard-response","48","113507","0.0-3.0-4.0-4.0-0.0","805","<div><div style=""""><a style=""white-space:pre-wrap;""> while a >= 10:
   a /= 3
   a *= 2</a><a style=""""></a></div></div>","backspace","backspace","1","20","while a >= 10:
   a /= 3
   a *= 2","backspace","4"
"","html-keyboard-response","49","117188","0.0-3.0-5.0-0.0-0.0","3176","<div><div style=""""><a style=""white-space:pre-wrap;""> while a >= 2:
   a /= 2</a><a style=""""></a></div></div>","4","4","1","21","while a >= 2:
   a /= 2","4","0"
"","html-keyboard-response","50","118124","0.0-3.0-5.0-1.0-0.0","428","<div><div style=""""><a style=""white-space:pre-wrap;""> while a >= 2:
   a /= 2</a><a style=""""></a></div></div>","2","2","1","21","while a >= 2:
   a /= 2","2","1"
"","html-keyboard-response","51","118964","0.0-3.0-5.0-2.0-0.0","333","<div><div style=""""><a style=""white-space:pre-wrap;""> while a >= 2:
   a /= 2</a><a style=""""></a></div></div>","1","1","1","21","while a >= 2:
   a /= 2","1","2"
"","html-keyboard-response","52","119740","0.0-3.0-5.0-3.0-0.0","273","<div><div style=""""><a style=""white-space:pre-wrap;""> while a >= 2:
   a /= 2</a><a style=""""></a></div></div>","backspace","backspace","1","21","while a >= 2:
   a /= 2","backspace","3"
"","html-keyboard-response","53","123404","0.0-3.0-6.0-0.0-0.0","3160","<div><div style=""""><a style=""white-space:pre-wrap;""> for i in [1, 2, 3, 4]:
   a += 2</a><a style=""""></a></div></div>","3","3","1","22","for i in [1, 2, 3, 4]:
   a += 2","3","0"
"","html-keyboard-response","54","124084","0.0-3.0-6.0-1.0-0.0","171","<div><div style=""""><a style=""white-space:pre-wrap;""> for i in [1, 2, 3, 4]:
   a += 2</a><a style=""""></a></div></div>","5","5","1","22","for i in [1, 2, 3, 4]:
   a += 2","5","1"
"","html-keyboard-response","55","124636","0.0-3.0-6.0-2.0-0.0","35","<div><div style=""""><a style=""white-space:pre-wrap;""> for i in [1, 2, 3, 4]:
   a += 2</a><a style=""""></a></div></div>","7","7","1","22","for i in [1, 2, 3, 4]:
   a += 2","7","2"
"","html-keyboard-response","56","125692","0.0-3.0-6.0-3.0-0.0","545","<div><div style=""""><a style=""white-space:pre-wrap;""> for i in [1, 2, 3, 4]:
   a += 2</a><a style=""""></a></div></div>","9","9","1","22","for i in [1, 2, 3, 4]:
   a += 2","9","3"
"","html-keyboard-response","57","126428","0.0-3.0-6.0-4.0-0.0","224","<div><div style=""""><a style=""white-space:pre-wrap;""> for i in [1, 2, 3, 4]:
   a += 2</a><a style=""""></a></div></div>","backspace","backspace","1","22","for i in [1, 2, 3, 4]:
   a += 2","backspace","4"
"","html-keyboard-response","58","130700","0.0-3.0-7.0-0.0-0.0","3765","<div><div style=""""><a style=""white-space:pre-wrap;""> while a >= 6:
   a += 9
   a /= 3</a><a style=""""></a></div></div>","18","18","1","23","while a >= 6:
   a += 9
   a /= 3","18","0"
"","html-keyboard-response","59","131548","0.0-3.0-7.0-1.0-0.0","341","<div><div style=""""><a style=""white-space:pre-wrap;""> while a >= 6:
   a += 9
   a /= 3</a><a style=""""></a></div></div>","6","6","1","23","while a >= 6:
   a += 9
   a /= 3","6","1"
"","html-keyboard-response","60","133148","0.0-3.0-7.0-2.0-0.0","1084","<div><div style=""""><a style=""white-space:pre-wrap;""> while a >= 6:
   a += 9
   a /= 3</a><a style=""""></a></div></div>","15","15","1","23","while a >= 6:
   a += 9
   a /= 3","15","2"
"","html-keyboard-response","61","133940","0.0-3.0-7.0-3.0-0.0","275","<div><div style=""""><a style=""white-space:pre-wrap;""> while a >= 6:
   a += 9
   a /= 3</a><a style=""""></a></div></div>","5","5","1","23","while a >= 6:
   a += 9
   a /= 3","5","3"
"","html-keyboard-response","62","134820","0.0-3.0-7.0-4.0-0.0","363","<div><div style=""""><a style=""white-space:pre-wrap;""> while a >= 6:
   a += 9
   a /= 3</a><a style=""""></a></div></div>","backspace","backspace","1","23","while a >= 6:
   a += 9
   a /= 3","backspace","4"
"","html-keyboard-response","63","138868","0.0-3.0-8.0-0.0-0.0","3538","<div><div style=""""><a style=""white-space:pre-wrap;""> for i in [1, 2, 3]:
   a = round_down(a*1.5)</a><a style=""""></a></div></div>","7","7","1","24","for i in [1, 2, 3]:
   a = round_down(a*1.5)","7","0"
"","html-keyboard-response","64","145684","0.0-3.0-8.0-1.0-0.0","6304","<div><div style=""""><a style=""white-space:pre-wrap;""> for i in [1, 2, 3]:
   a = round_down(a*1.5)</a><a style=""""></a></div></div>","10","10","1","24","for i in [1, 2, 3]:
   a = round_down(a*1.5)","10","1"
"","html-keyboard-response","65","148356","0.0-3.0-8.0-2.0-0.0","2159","<div><div style=""""><a style=""white-space:pre-wrap;""> for i in [1, 2, 3]:
   a = round_down(a*1.5)</a><a style=""""></a></div></div>","15","15","1","24","for i in [1, 2, 3]:
   a = round_down(a*1.5)","15","2"
"","html-keyboard-response","66","149052","0.0-3.0-8.0-3.0-0.0","192","<div><div style=""""><a style=""white-space:pre-wrap;""> for i in [1, 2, 3]:
   a = round_down(a*1.5)</a><a style=""""></a></div></div>","backspace","backspace","1","24","for i in [1, 2, 3]:
   a = round_down(a*1.5)","backspace","3"
"","html-keyboard-response","67","152828","0.0-3.0-9.0-0.0-0.0","3266","<div><div style=""""><a style=""white-space:pre-wrap;""> for i in [1, 2]:
   a = average(a,3)</a><a style=""""></a></div></div>","9","9","1","25","for i in [1, 2]:
   a = average(a,3)","9","0"
"","html-keyboard-response","68","156748","0.0-3.0-9.0-1.0-0.0","3418","<div><div style=""""><a style=""white-space:pre-wrap;""> for i in [1, 2]:
   a = average(a,3)</a><a style=""""></a></div></div>","6","6","1","25","for i in [1, 2]:
   a = average(a,3)","6","1"
"","html-keyboard-response","69","157556","0.0-3.0-9.0-2.0-0.0","293","<div><div style=""""><a style=""white-space:pre-wrap;""> for i in [1, 2]:
   a = average(a,3)</a><a style=""""></a></div></div>","backspace","backspace","1","25","for i in [1, 2]:
   a = average(a,3)","backspace","2"
"","html-keyboard-response","70","160876","0.0-3.0-10.0-0.0-0.0","2817","<div><div style=""""><a style=""white-space:pre-wrap;""> while a <= 11:
   a *= 2
   a -= 5</a><a style=""""></a></div></div>","12","12","1","26","while a <= 11:
   a *= 2
   a -= 5","12","0"
"","html-keyboard-response","71","161804","0.0-3.0-10.0-1.0-0.0","418","<div><div style=""""><a style=""white-space:pre-wrap;""> while a <= 11:
   a *= 2
   a -= 5</a><a style=""""></a></div></div>","7","7","1","26","while a <= 11:
   a *= 2
   a -= 5","7","1"
"","html-keyboard-response","72","166268","0.0-3.0-10.0-2.0-0.0","3962","<div><div style=""""><a style=""white-space:pre-wrap;""> while a <= 11:
   a *= 2
   a -= 5</a><a style=""""></a></div></div>","14","14","1","26","while a <= 11:
   a *= 2
   a -= 5","14","2"
"","html-keyboard-response","73","167580","0.0-3.0-10.0-3.0-0.0","796","<div><div style=""""><a style=""white-space:pre-wrap;""> while a <= 11:
   a *= 2
   a -= 5</a><a style=""""></a></div></div>","9","9","1","26","while a <= 11:
   a *= 2
   a -= 5","9","3"
"","html-keyboard-response","74","168940","0.0-3.0-10.0-4.0-0.0","853","<div><div style=""""><a style=""white-space:pre-wrap;""> while a <= 11:
   a *= 2
   a -= 5</a><a style=""""></a></div></div>","18","18","1","26","while a <= 11:
   a *= 2
   a -= 5","18","4"
"","html-keyboard-response","75","169860","0.0-3.0-10.0-5.0-0.0","406","<div><div style=""""><a style=""white-space:pre-wrap;""> while a <= 11:
   a *= 2
   a -= 5</a><a style=""""></a></div></div>","13","13","1","26","while a <= 11:
   a *= 2
   a -= 5","13","5"
"","html-keyboard-response","76","170620","0.0-3.0-10.0-6.0-0.0","245","<div><div style=""""><a style=""white-space:pre-wrap;""> while a <= 11:
   a *= 2
   a -= 5</a><a style=""""></a></div></div>","backspace","backspace","1","26","while a <= 11:
   a *= 2
   a -= 5","backspace","6"
"","html-keyboard-response","77","173388","0.0-3.0-11.0-0.0-0.0","2265","<div><div style=""""><a style=""white-space:pre-wrap;""> while a >= 6:
   a += 4
   a -= 7</a><a style=""""></a></div></div>","17","17","1","27","while a >= 6:
   a += 4
   a -= 7","17","0"
"","html-keyboard-response","78","175236","0.0-3.0-11.0-1.0-0.0","1335","<div><div style=""""><a style=""white-space:pre-wrap;""> while a >= 6:
   a += 4
   a -= 7</a><a style=""""></a></div></div>","10","10","1","27","while a >= 6:
   a += 4
   a -= 7","10","1"
"","html-keyboard-response","79","177812","0.0-3.0-11.0-2.0-0.0","2062","<div><div style=""""><a style=""white-space:pre-wrap;""> while a >= 6:
   a += 4
   a -= 7</a><a style=""""></a></div></div>","14","14","1","27","while a >= 6:
   a += 4
   a -= 7","14","2"
"","html-keyboard-response","80","178747","0.0-3.0-11.0-3.0-0.0","432","<div><div style=""""><a style=""white-space:pre-wrap;""> while a >= 6:
   a += 4
   a -= 7</a><a style=""""></a></div></div>","7","7","1","27","while a >= 6:
   a += 4
   a -= 7","7","3"
"","html-keyboard-response","81","181483","0.0-3.0-11.0-4.0-0.0","2220","<div><div style=""""><a style=""white-space:pre-wrap;""> while a >= 6:
   a += 4
   a -= 7</a><a style=""""></a></div></div>","11","11","1","27","while a >= 6:
   a += 4
   a -= 7","11","4"
"","html-keyboard-response","82","182427","0.0-3.0-11.0-5.0-0.0","433","<div><div style=""""><a style=""white-space:pre-wrap;""> while a >= 6:
   a += 4
   a -= 7</a><a style=""""></a></div></div>","4","4","1","27","while a >= 6:
   a += 4
   a -= 7","4","5"
"","html-keyboard-response","83","183315","0.0-3.0-11.0-6.0-0.0","372","<div><div style=""""><a style=""white-space:pre-wrap;""> while a >= 6:
   a += 4
   a -= 7</a><a style=""""></a></div></div>","backspace","backspace","1","27","while a >= 6:
   a += 4
   a -= 7","backspace","6"
"","html-keyboard-response","84","184987","0.0-4.0-1.0","1159","<p style=""font-size: 25px;"">Please press space to start the next program<br>>>>>>></p>"," ","","","","","",""
"","html-keyboard-response","85","186771","0.0-4.0-2.0","1783","<div><div style="" font-size:25px; color:green;""><a style=""white-space:pre-wrap;""> a = 11</a><a style=""""></a></div></div>","","null","","64","a = 11","",""
"","html-keyboard-response","86","190155","0.0-4.0-4.0-0.0-0.0","2872","<div><div style=""""><a style=""white-space:pre-wrap;""> for i in [1, 2]:
   a += 4
   a /= 3</a><a style=""""></a></div></div>","15","15","1","65","for i in [1, 2]:
   a += 4
   a /= 3","15","0"
"","html-keyboard-response","87","191051","0.0-4.0-4.0-1.0-0.0","378","<div><div style=""""><a style=""white-space:pre-wrap;""> for i in [1, 2]:
   a += 4
   a /= 3</a><a style=""""></a></div></div>","5","5","1","65","for i in [1, 2]:
   a += 4
   a /= 3","5","1"
"","html-keyboard-response","88","192043","0.0-4.0-4.0-2.0-0.0","481","<div><div style=""""><a style=""white-space:pre-wrap;""> for i in [1, 2]:
   a += 4
   a /= 3</a><a style=""""></a></div></div>","9","9","1","65","for i in [1, 2]:
   a += 4
   a /= 3","9","2"
"","html-keyboard-response","89","193235","0.0-4.0-4.0-3.0-0.0","679","<div><div style=""""><a style=""white-space:pre-wrap;""> for i in [1, 2]:
   a += 4
   a /= 3</a><a style=""""></a></div></div>","3","3","1","65","for i in [1, 2]:
   a += 4
   a /= 3","3","3"
"","html-keyboard-response","90","193963","0.0-4.0-4.0-4.0-0.0","223","<div><div style=""""><a style=""white-space:pre-wrap;""> for i in [1, 2]:
   a += 4
   a /= 3</a><a style=""""></a></div></div>","backspace","backspace","1","65","for i in [1, 2]:
   a += 4
   a /= 3","backspace","4"
"","html-keyboard-response","91","199315","0.0-4.0-5.0-0.0-0.0","4843","<div><div style=""""><a style=""white-space:pre-wrap;""> for i in [1, 2]:
   a = round_down(a*2.5)</a><a style=""""></a></div></div>","7","7","1","66","for i in [1, 2]:
   a = round_down(a*2.5)","7","0"
"","html-keyboard-response","92","205043","0.0-4.0-5.0-1.0-0.0","5226","<div><div style=""""><a style=""white-space:pre-wrap;""> for i in [1, 2]:
   a = round_down(a*2.5)</a><a style=""""></a></div></div>","17","17","1","66","for i in [1, 2]:
   a = round_down(a*2.5)","17","1"
"","html-keyboard-response","93","206395","0.0-4.0-5.0-2.0-0.0","845","<div><div style=""""><a style=""white-space:pre-wrap;""> for i in [1, 2]:
   a = round_down(a*2.5)</a><a style=""""></a></div></div>","backspace","backspace","1","66","for i in [1, 2]:
   a = round_down(a*2.5)","backspace","2"
"","html-keyboard-response","94","209795","0.0-4.0-6.0-0.0-0.0","2892","<div><div style=""""><a style=""white-space:pre-wrap;""> while a >= 3:
   a = average(a,1)</a><a style=""""></a></div></div>","9","9","1","67","while a >= 3:
   a = average(a,1)","9","0"
"","html-keyboard-response","95","211731","0.0-4.0-6.0-1.0-0.0","1426","<div><div style=""""><a style=""white-space:pre-wrap;""> while a >= 3:
   a = average(a,1)</a><a style=""""></a></div></div>","5","5","1","67","while a >= 3:
   a = average(a,1)","5","1"
"","html-keyboard-response","96","213315","0.0-4.0-6.0-2.0-0.0","1079","<div><div style=""""><a style=""white-space:pre-wrap;""> while a >= 3:
   a = average(a,1)</a><a style=""""></a></div></div>","3","3","1","67","while a >= 3:
   a = average(a,1)","3","2"
"","html-keyboard-response","97","214091","0.0-4.0-6.0-3.0-0.0","260","<div><div style=""""><a style=""white-space:pre-wrap;""> while a >= 3:
   a = average(a,1)</a><a style=""""></a></div></div>","2","2","1","67","while a >= 3:
   a = average(a,1)","2","3"
"","html-keyboard-response","98","214883","0.0-4.0-6.0-4.0-0.0","288","<div><div style=""""><a style=""white-space:pre-wrap;""> while a >= 3:
   a = average(a,1)</a><a style=""""></a></div></div>","backspace","backspace","1","67","while a >= 3:
   a = average(a,1)","backspace","4"
"","html-keyboard-response","99","217819","0.0-4.0-7.0-0.0-0.0","2433","<div><div style=""""><a style=""white-space:pre-wrap;""> for i in [1, 2]:
   a *= 3
   a -= 1</a><a style=""""></a></div></div>","6","6","1","68","for i in [1, 2]:
   a *= 3
   a -= 1","6","0"
"","html-keyboard-response","100","218531","0.0-4.0-7.0-1.0-0.0","202","<div><div style=""""><a style=""white-space:pre-wrap;""> for i in [1, 2]:
   a *= 3
   a -= 1</a><a style=""""></a></div></div>","5","5","1","68","for i in [1, 2]:
   a *= 3
   a -= 1","5","1"
"","html-keyboard-response","101","221899","0.0-4.0-7.0-2.0-0.0","2854","<div><div style=""""><a style=""white-space:pre-wrap;""> for i in [1, 2]:
   a *= 3
   a -= 1</a><a style=""""></a></div></div>","15","15","1","68","for i in [1, 2]:
   a *= 3
   a -= 1","15","2"
"","html-keyboard-response","102","222955","0.0-4.0-7.0-3.0-0.0","552","<div><div style=""""><a style=""white-space:pre-wrap;""> for i in [1, 2]:
   a *= 3
   a -= 1</a><a style=""""></a></div></div>","14","14","1","68","for i in [1, 2]:
   a *= 3
   a -= 1","14","3"
"","html-keyboard-response","103","223811","0.0-4.0-7.0-4.0-0.0","350","<div><div style=""""><a style=""white-space:pre-wrap;""> for i in [1, 2]:
   a *= 3
   a -= 1</a><a style=""""></a></div></div>","backspace","backspace","1","68","for i in [1, 2]:
   a *= 3
   a -= 1","backspace","4"
"","html-keyboard-response","104","226963","0.0-4.0-8.0-0.0-0.0","2648","<div><div style=""""><a style=""white-space:pre-wrap;""> for i in [1, 2, 3]:
   a -= 5
   a += 1</a><a style=""""></a></div></div>","9","9","1","69","for i in [1, 2, 3]:
   a -= 5
   a += 1","9","0"
"","html-keyboard-response","105","227851","0.0-4.0-8.0-1.0-0.0","374","<div><div style=""""><a style=""white-space:pre-wrap;""> for i in [1, 2, 3]:
   a -= 5
   a += 1</a><a style=""""></a></div></div>","10","10","1","69","for i in [1, 2, 3]:
   a -= 5
   a += 1","10","1"
"","html-keyboard-response","106","229563","0.0-4.0-8.0-2.0-0.0","1200","<div><div style=""""><a style=""white-space:pre-wrap;""> for i in [1, 2, 3]:
   a -= 5
   a += 1</a><a style=""""></a></div></div>","5","5","1","69","for i in [1, 2, 3]:
   a -= 5
   a += 1","5","2"
"","html-keyboard-response","107","230395","0.0-4.0-8.0-3.0-0.0","320","<div><div style=""""><a style=""white-space:pre-wrap;""> for i in [1, 2, 3]:
   a -= 5
   a += 1</a><a style=""""></a></div></div>","6","6","1","69","for i in [1, 2, 3]:
   a -= 5
   a += 1","6","3"
"","html-keyboard-response","108","232843","0.0-4.0-8.0-4.0-0.0","1945","<div><div style=""""><a style=""white-space:pre-wrap;""> for i in [1, 2, 3]:
   a -= 5
   a += 1</a><a style=""""></a></div></div>","1","1","1","69","for i in [1, 2, 3]:
   a -= 5
   a += 1","1","4"
"","html-keyboard-response","109","233539","0.0-4.0-8.0-5.0-0.0","186","<div><div style=""""><a style=""white-space:pre-wrap;""> for i in [1, 2, 3]:
   a -= 5
   a += 1</a><a style=""""></a></div></div>","2","2","1","69","for i in [1, 2, 3]:
   a -= 5
   a += 1","2","5"
"","html-keyboard-response","110","234323","0.0-4.0-8.0-6.0-0.0","272","<div><div style=""""><a style=""white-space:pre-wrap;""> for i in [1, 2, 3]:
   a -= 5
   a += 1</a><a style=""""></a></div></div>","backspace","backspace","1","69","for i in [1, 2, 3]:
   a -= 5
   a += 1","backspace","6"
"","html-keyboard-response","111","238211","0.0-4.0-9.0-0.0-0.0","3381","<div><div style=""""><a style=""white-space:pre-wrap;""> while a <= 15:
   a *= 3</a><a style=""""></a></div></div>","6","6","1","70","while a <= 15:
   a *= 3","6","0"
"","html-keyboard-response","112","239579","0.0-4.0-9.0-1.0-0.0","865","<div><div style=""""><a style=""white-space:pre-wrap;""> while a <= 15:
   a *= 3</a><a style=""""></a></div></div>","18","18","1","70","while a <= 15:
   a *= 3","18","1"
"","html-keyboard-response","113","240987","0.0-4.0-9.0-2.0-0.0","891","<div><div style=""""><a style=""white-space:pre-wrap;""> while a <= 15:
   a *= 3</a><a style=""""></a></div></div>","backspace","backspace","1","70","while a <= 15:
   a *= 3","backspace","2"
"","html-keyboard-response","114","245211","0.0-4.0-10.0-0.0-0.0","3716","<div><div style=""""><a style=""white-space:pre-wrap;""> for i in [1, 2]:
   a /= 3
   a *= 2</a><a style=""""></a></div></div>","6","6","1","71","for i in [1, 2]:
   a /= 3
   a *= 2","6","0"
"","html-keyboard-response","115","246852","0.0-4.0-10.0-1.0-0.0","1124","<div><div style=""""><a style=""white-space:pre-wrap;""> for i in [1, 2]:
   a /= 3
   a *= 2</a><a style=""""></a></div></div>","12","12","1","71","for i in [1, 2]:
   a /= 3
   a *= 2","12","1"
"","html-keyboard-response","116","249508","0.0-4.0-10.0-2.0-0.0","2144","<div><div style=""""><a style=""white-space:pre-wrap;""> for i in [1, 2]:
   a /= 3
   a *= 2</a><a style=""""></a></div></div>","4","4","1","71","for i in [1, 2]:
   a /= 3
   a *= 2","4","2"
"","html-keyboard-response","117","251027","0.0-4.0-10.0-3.0-0.0","1006","<div><div style=""""><a style=""white-space:pre-wrap;""> for i in [1, 2]:
   a /= 3
   a *= 2</a><a style=""""></a></div></div>","8","8","1","71","for i in [1, 2]:
   a /= 3
   a *= 2","8","3"
"","html-keyboard-response","118","251739","0.0-4.0-10.0-4.0-0.0","196","<div><div style=""""><a style=""white-space:pre-wrap;""> for i in [1, 2]:
   a /= 3
   a *= 2</a><a style=""""></a></div></div>","backspace","backspace","1","71","for i in [1, 2]:
   a /= 3
   a *= 2","backspace","4"
"","html-keyboard-response","119","254780","0.0-4.0-11.0-0.0-0.0","2534","<div><div style=""""><a style=""white-space:pre-wrap;""> for i in [1, 2, 3]:
   a += 4</a><a style=""""></a></div></div>","12","12","1","72","for i in [1, 2, 3]:
   a += 4","12","0"
"","html-keyboard-response","120","255764","0.0-4.0-11.0-1.0-0.0","471","<div><div style=""""><a style=""white-space:pre-wrap;""> for i in [1, 2, 3]:
   a += 4</a><a style=""""></a></div></div>","16","16","1","72","for i in [1, 2, 3]:
   a += 4","16","1"
"","html-keyboard-response","121","256460","0.0-4.0-11.0-2.0-0.0","189","<div><div style=""""><a style=""white-space:pre-wrap;""> for i in [1, 2, 3]:
   a += 4</a><a style=""""></a></div></div>","20","20","1","72","for i in [1, 2, 3]:
   a += 4","20","2"
"","html-keyboard-response","122","257379","0.0-4.0-11.0-3.0-0.0","408","<div><div style=""""><a style=""white-space:pre-wrap;""> for i in [1, 2, 3]:
   a += 4</a><a style=""""></a></div></div>","backspace","backspace","1","72","for i in [1, 2, 3]:
   a += 4","backspace","3"
"","html-keyboard-response","123","259083","0.0-5.0-1.0","1193","<p style=""font-size: 25px;"">Please press space to start the next program<br>>>>>>></p>"," ","","","","","",""
"","html-keyboard-response","124","260020","0.0-5.0-2.0","935","<div><div style="" font-size:25px; color:green;""><a style=""white-space:pre-wrap;""> a = 8</a><a style=""""></a></div></div>","","null","","37","a = 8","",""
"","html-keyboard-response","125","263108","0.0-5.0-4.0-0.0-0.0","2586","<div><div style=""""><a style=""white-space:pre-wrap;""> for i in [1, 2, 3]:
   a -= 2
   a += 6</a><a style=""""></a></div></div>","6","6","1","38","for i in [1, 2, 3]:
   a -= 2
   a += 6","6","0"
"","html-keyboard-response","126","264242","0.0-5.0-4.0-1.0-0.0","619","<div><div style=""""><a style=""white-space:pre-wrap;""> for i in [1, 2, 3]:
   a -= 2
   a += 6</a><a style=""""></a></div></div>","12","12","1","38","for i in [1, 2, 3]:
   a -= 2
   a += 6","12","1"
"","html-keyboard-response","127","265362","0.0-5.0-4.0-2.0-0.0","604","<div><div style=""""><a style=""white-space:pre-wrap;""> for i in [1, 2, 3]:
   a -= 2
   a += 6</a><a style=""""></a></div></div>","10","10","1","38","for i in [1, 2, 3]:
   a -= 2
   a += 6","10","2"
"","html-keyboard-response","128","266523","0.0-5.0-4.0-3.0-0.0","651","<div><div style=""""><a style=""white-space:pre-wrap;""> for i in [1, 2, 3]:
   a -= 2
   a += 6</a><a style=""""></a></div></div>","16","16","1","38","for i in [1, 2, 3]:
   a -= 2
   a += 6","16","3"
"","html-keyboard-response","129","269540","0.0-5.0-4.0-4.0-0.0","2504","<div><div style=""""><a style=""white-space:pre-wrap;""> for i in [1, 2, 3]:
   a -= 2
   a += 6</a><a style=""""></a></div></div>","14","14","1","38","for i in [1, 2, 3]:
   a -= 2
   a += 6","14","4"
"","html-keyboard-response","130","270228","0.0-5.0-4.0-5.0-0.0","177","<div><div style=""""><a style=""white-space:pre-wrap;""> for i in [1, 2, 3]:
   a -= 2
   a += 6</a><a style=""""></a></div></div>","20","20","1","38","for i in [1, 2, 3]:
   a -= 2
   a += 6","20","5"
"","html-keyboard-response","131","271819","0.0-5.0-4.0-6.0-0.0","1083","<div><div style=""""><a style=""white-space:pre-wrap;""> for i in [1, 2, 3]:
   a -= 2
   a += 6</a><a style=""""></a></div></div>","backspace","backspace","1","38","for i in [1, 2, 3]:
   a -= 2
   a += 6","backspace","6"
"","html-keyboard-response","132","275571","0.0-5.0-5.0-0.0-0.0","3247","<div><div style=""""><a style=""white-space:pre-wrap;""> while a >= 8:
   a /= 2</a><a style=""""></a></div></div>","10","10","1","39","while a >= 8:
   a /= 2","10","0"
"","html-keyboard-response","133","277051","0.0-5.0-5.0-1.0-0.0","970","<div><div style=""""><a style=""white-space:pre-wrap;""> while a >= 8:
   a /= 2</a><a style=""""></a></div></div>","5","5","1","39","while a >= 8:
   a /= 2","5","1"
"","html-keyboard-response","134","278588","0.0-5.0-5.0-2.0-0.0","1029","<div><div style=""""><a style=""white-space:pre-wrap;""> while a >= 8:
   a /= 2</a><a style=""""></a></div></div>","backspace","backspace","1","39","while a >= 8:
   a /= 2","backspace","2"
"","html-keyboard-response","135","284892","0.0-5.0-6.0-0.0-0.0","5795","<div><div style=""""><a style=""white-space:pre-wrap;""> while a <= 15:
   a = round_up(a*1.5)</a><a style=""""></a></div></div>","8","8","1","40","while a <= 15:
   a = round_up(a*1.5)","8","0"
"","html-keyboard-response","136","288155","0.0-5.0-6.0-1.0-0.0","2759","<div><div style=""""><a style=""white-space:pre-wrap;""> while a <= 15:
   a = round_up(a*1.5)</a><a style=""""></a></div></div>","12","12","1","40","while a <= 15:
   a = round_up(a*1.5)","12","1"
"","html-keyboard-response","137","291235","0.0-5.0-6.0-2.0-0.0","2573","<div><div style=""""><a style=""white-space:pre-wrap;""> while a <= 15:
   a = round_up(a*1.5)</a><a style=""""></a></div></div>","18","18","1","40","while a <= 15:
   a = round_up(a*1.5)","18","2"
"","html-keyboard-response","138","291907","0.0-5.0-6.0-3.0-0.0","164","<div><div style=""""><a style=""white-space:pre-wrap;""> while a <= 15:
   a = round_up(a*1.5)</a><a style=""""></a></div></div>","backspace","backspace","1","40","while a <= 15:
   a = round_up(a*1.5)","backspace","3"
"","html-keyboard-response","139","295276","0.0-5.0-7.0-0.0-0.0","2863","<div><div style=""""><a style=""white-space:pre-wrap;""> while a >= 4:
   a = average(a,2)</a><a style=""""></a></div></div>","10","10","1","41","while a >= 4:
   a = average(a,2)","10","0"
"","html-keyboard-response","140","297547","0.0-5.0-7.0-1.0-0.0","1767","<div><div style=""""><a style=""white-space:pre-wrap;""> while a >= 4:
   a = average(a,2)</a><a style=""""></a></div></div>","6","6","1","41","while a >= 4:
   a = average(a,2)","6","1"
"","html-keyboard-response","141","299820","0.0-5.0-7.0-2.0-0.0","1759","<div><div style=""""><a style=""white-space:pre-wrap;""> while a >= 4:
   a = average(a,2)</a><a style=""""></a></div></div>","4","4","1","41","while a >= 4:
   a = average(a,2)","4","2"
"","html-keyboard-response","142","300572","0.0-5.0-7.0-3.0-0.0","242","<div><div style=""""><a style=""white-space:pre-wrap;""> while a >= 4:
   a = average(a,2)</a><a style=""""></a></div></div>","3","3","1","41","while a >= 4:
   a = average(a,2)","3","3"
"","html-keyboard-response","143","301451","0.0-5.0-7.0-4.0-0.0","377","<div><div style=""""><a style=""white-space:pre-wrap;""> while a >= 4:
   a = average(a,2)</a><a style=""""></a></div></div>","backspace","backspace","1","41","while a >= 4:
   a = average(a,2)","backspace","4"
"","html-keyboard-response","144","304595","0.0-5.0-8.0-0.0-0.0","2631","<div><div style=""""><a style=""white-space:pre-wrap;""> for i in [1, 2]:
   a += 7
   a /= 2</a><a style=""""></a></div></div>","10","10","1","42","for i in [1, 2]:
   a += 7
   a /= 2","10","0"
"","html-keyboard-response","145","305572","0.0-5.0-8.0-1.0-0.0","462","<div><div style=""""><a style=""white-space:pre-wrap;""> for i in [1, 2]:
   a += 7
   a /= 2</a><a style=""""></a></div></div>","5","5","1","42","for i in [1, 2]:
   a += 7
   a /= 2","5","1"
"","html-keyboard-response","146","308884","0.0-5.0-8.0-2.0-0.0","2807","<div><div style=""""><a style=""white-space:pre-wrap;""> for i in [1, 2]:
   a += 7
   a /= 2</a><a style=""""></a></div></div>","12","12","1","42","for i in [1, 2]:
   a += 7
   a /= 2","12","2"
"","html-keyboard-response","147","309827","0.0-5.0-8.0-3.0-0.0","437","<div><div style=""""><a style=""white-space:pre-wrap;""> for i in [1, 2]:
   a += 7
   a /= 2</a><a style=""""></a></div></div>","6","6","1","42","for i in [1, 2]:
   a += 7
   a /= 2","6","3"
"","html-keyboard-response","148","311044","0.0-5.0-8.0-4.0-0.0","704","<div><div style=""""><a style=""white-space:pre-wrap;""> for i in [1, 2]:
   a += 7
   a /= 2</a><a style=""""></a></div></div>","backspace","backspace","1","42","for i in [1, 2]:
   a += 7
   a /= 2","backspace","4"
"","html-keyboard-response","149","315284","0.0-5.0-9.0-0.0-0.0","3728","<div><div style=""""><a style=""white-space:pre-wrap;""> for i in [1, 2, 3, 4]:
   a += 3</a><a style=""""></a></div></div>","9","9","1","43","for i in [1, 2, 3, 4]:
   a += 3","9","0"
"","html-keyboard-response","150","316284","0.0-5.0-9.0-1.0-0.0","485","<div><div style=""""><a style=""white-space:pre-wrap;""> for i in [1, 2, 3, 4]:
   a += 3</a><a style=""""></a></div></div>","12","12","1","43","for i in [1, 2, 3, 4]:
   a += 3","12","1"
"","html-keyboard-response","151","317107","0.0-5.0-9.0-2.0-0.0","314","<div><div style=""""><a style=""white-space:pre-wrap;""> for i in [1, 2, 3, 4]:
   a += 3</a><a style=""""></a></div></div>","15","15","1","43","for i in [1, 2, 3, 4]:
   a += 3","15","2"
"","html-keyboard-response","152","317836","0.0-5.0-9.0-3.0-0.0","218","<div><div style=""""><a style=""white-space:pre-wrap;""> for i in [1, 2, 3, 4]:
   a += 3</a><a style=""""></a></div></div>","18","18","1","43","for i in [1, 2, 3, 4]:
   a += 3","18","3"
"","html-keyboard-response","153","318475","0.0-5.0-9.0-4.0-0.0","136","<div><div style=""""><a style=""white-space:pre-wrap;""> for i in [1, 2, 3, 4]:
   a += 3</a><a style=""""></a></div></div>","backspace","backspace","1","43","for i in [1, 2, 3, 4]:
   a += 3","backspace","4"
"","html-keyboard-response","154","323412","0.0-5.0-10.0-0.0-0.0","4433","<div><div style=""""><a style=""white-space:pre-wrap;""> for i in [1, 2]:
   a /= 3
   a *= 2</a><a style=""""></a></div></div>","6","6","1","44","for i in [1, 2]:
   a /= 3
   a *= 2","6","0"
"","html-keyboard-response","155","324907","0.0-5.0-10.0-1.0-0.0","985","<div><div style=""""><a style=""white-space:pre-wrap;""> for i in [1, 2]:
   a /= 3
   a *= 2</a><a style=""""></a></div></div>","12","12","1","44","for i in [1, 2]:
   a /= 3
   a *= 2","12","1"
"","html-keyboard-response","156","325876","0.0-5.0-10.0-2.0-0.0","460","<div><div style=""""><a style=""white-space:pre-wrap;""> for i in [1, 2]:
   a /= 3
   a *= 2</a><a style=""""></a></div></div>","4","4","1","44","for i in [1, 2]:
   a /= 3
   a *= 2","4","2"
"","html-keyboard-response","157","326724","0.0-5.0-10.0-3.0-0.0","332","<div><div style=""""><a style=""white-space:pre-wrap;""> for i in [1, 2]:
   a /= 3
   a *= 2</a><a style=""""></a></div></div>","8","8","1","44","for i in [1, 2]:
   a /= 3
   a *= 2","8","3"
"","html-keyboard-response","158","327620","0.0-5.0-10.0-4.0-0.0","388","<div><div style=""""><a style=""white-space:pre-wrap;""> for i in [1, 2]:
   a /= 3
   a *= 2</a><a style=""""></a></div></div>","backspace","backspace","1","44","for i in [1, 2]:
   a /= 3
   a *= 2","backspace","4"
"","html-keyboard-response","159","331715","0.0-5.0-11.0-0.0-0.0","3581","<div><div style=""""><a style=""white-space:pre-wrap;""> while a >= 3:
   a *= 2
   a -= 9</a><a style=""""></a></div></div>","16","16","1","45","while a >= 3:
   a *= 2
   a -= 9","16","0"
"","html-keyboard-response","160","332995","0.0-5.0-11.0-1.0-0.0","775","<div><div style=""""><a style=""white-space:pre-wrap;""> while a >= 3:
   a *= 2
   a -= 9</a><a style=""""></a></div></div>","7","7","1","45","while a >= 3:
   a *= 2
   a -= 9","7","1"
"","html-keyboard-response","161","334843","0.0-5.0-11.0-2.0-0.0","1332","<div><div style=""""><a style=""white-space:pre-wrap;""> while a >= 3:
   a *= 2
   a -= 9</a><a style=""""></a></div></div>","14","14","1","45","while a >= 3:
   a *= 2
   a -= 9","14","2"
"","html-keyboard-response","162","337708","0.0-5.0-11.0-3.0-0.0","2362","<div><div style=""""><a style=""white-space:pre-wrap;""> while a >= 3:
   a *= 2
   a -= 9</a><a style=""""></a></div></div>","5","5","1","45","while a >= 3:
   a *= 2
   a -= 9","5","3"
"","html-keyboard-response","163","339356","0.0-5.0-11.0-4.0-0.0","1134","<div><div style=""""><a style=""white-space:pre-wrap;""> while a >= 3:
   a *= 2
   a -= 9</a><a style=""""></a></div></div>","10","10","1","45","while a >= 3:
   a *= 2
   a -= 9","10","4"
"","html-keyboard-response","164","340563","0.0-5.0-11.0-5.0-0.0","695","<div><div style=""""><a style=""white-space:pre-wrap;""> while a >= 3:
   a *= 2
   a -= 9</a><a style=""""></a></div></div>","1","1","1","45","while a >= 3:
   a *= 2
   a -= 9","1","5"
"","html-keyboard-response","165","341420","0.0-5.0-11.0-6.0-0.0","351","<div><div style=""""><a style=""white-space:pre-wrap;""> while a >= 3:
   a *= 2
   a -= 9</a><a style=""""></a></div></div>","backspace","backspace","1","45","while a >= 3:
   a *= 2
   a -= 9","backspace","6"
"","html-keyboard-response","166","419003","0.0-6.0-0.0-0.0","77079","<p style=""position:absolute; top:30%; font-size:25px; color:green;"" >Take a short break now</p>"," ","","","","","",""
"","html-keyboard-response","167","421659","0.0-6.0-1.0","2653","<p style=""font-size: 25px;"">Please press space to start the next program<br>>>>>>></p>"," ","","","","","",""
"","html-keyboard-response","168","422763","0.0-6.0-2.0","1103","<div><div style="" font-size:25px; color:green;""><a style=""white-space:pre-wrap;""> a = 9</a><a style=""""></a></div></div>","","null","","91","a = 9","",""
"","html-keyboard-response","169","427955","0.0-6.0-4.0-0.0-0.0","4688","<div><div style=""""><a style=""white-space:pre-wrap;""> while a >= 2:
   a /= 3</a><a style=""""></a></div></div>","3","3","1","92","while a >= 2:
   a /= 3","3","0"
"","html-keyboard-response","170","429171","0.0-6.0-4.0-1.0-0.0","706","<div><div style=""""><a style=""white-space:pre-wrap;""> while a >= 2:
   a /= 3</a><a style=""""></a></div></div>","1","1","1","92","while a >= 2:
   a /= 3","1","1"
"","html-keyboard-response","171","429995","0.0-6.0-4.0-2.0-0.0","307","<div><div style=""""><a style=""white-space:pre-wrap;""> while a >= 2:
   a /= 3</a><a style=""""></a></div></div>","backspace","backspace","1","92","while a >= 2:
   a /= 3","backspace","2"
"","html-keyboard-response","172","431787","0.0-6.0-5.0-0.0-0.0","1287","<div><div style=""""><a style=""white-space:pre-wrap;""> for i in [1, 2, 3]:
   a += 6</a><a style=""""></a></div></div>","7","7","1","93","for i in [1, 2, 3]:
   a += 6","7","0"
"","html-keyboard-response","173","433147","0.0-6.0-5.0-1.0-0.0","847","<div><div style=""""><a style=""white-space:pre-wrap;""> for i in [1, 2, 3]:
   a += 6</a><a style=""""></a></div></div>","13","13","1","93","for i in [1, 2, 3]:
   a += 6","13","1"
"","html-keyboard-response","174","435123","0.0-6.0-5.0-2.0-0.0","1474","<div><div style=""""><a style=""white-space:pre-wrap;""> for i in [1, 2, 3]:
   a += 6</a><a style=""""></a></div></div>","19","19","1","93","for i in [1, 2, 3]:
   a += 6","19","2"
"","html-keyboard-response","175","435811","0.0-6.0-5.0-3.0-0.0","172","<div><div style=""""><a style=""white-space:pre-wrap;""> for i in [1, 2, 3]:
   a += 6</a><a style=""""></a></div></div>","backspace","backspace","1","93","for i in [1, 2, 3]:
   a += 6","backspace","3"
"","html-keyboard-response","176","439027","0.0-6.0-6.0-0.0-0.0","2698","<div><div style=""""><a style=""white-space:pre-wrap;""> for i in [1, 2]:
   a += 1
   a -= 8</a><a style=""""></a></div></div>","20","20","1","94","for i in [1, 2]:
   a += 1
   a -= 8","20","0"
"","html-keyboard-response","177","440483","0.0-6.0-6.0-1.0-0.0","946","<div><div style=""""><a style=""white-space:pre-wrap;""> for i in [1, 2]:
   a += 1
   a -= 8</a><a style=""""></a></div></div>","12","12","1","94","for i in [1, 2]:
   a += 1
   a -= 8","12","1"
"","html-keyboard-response","178","441419","0.0-6.0-6.0-2.0-0.0","427","<div><div style=""""><a style=""white-space:pre-wrap;""> for i in [1, 2]:
   a += 1
   a -= 8</a><a style=""""></a></div></div>","13","13","1","94","for i in [1, 2]:
   a += 1
   a -= 8","13","2"
"","html-keyboard-response","179","443715","0.0-6.0-6.0-3.0-0.0","1791","<div><div style=""""><a style=""white-space:pre-wrap;""> for i in [1, 2]:
   a += 1
   a -= 8</a><a style=""""></a></div></div>","5","5","1","94","for i in [1, 2]:
   a += 1
   a -= 8","5","3"
"","html-keyboard-response","180","444371","0.0-6.0-6.0-4.0-0.0","146","<div><div style=""""><a style=""white-space:pre-wrap;""> for i in [1, 2]:
   a += 1
   a -= 8</a><a style=""""></a></div></div>","backspace","backspace","1","94","for i in [1, 2]:
   a += 1
   a -= 8","backspace","4"
"","html-keyboard-response","181","447203","0.0-6.0-7.0-0.0-0.0","2320","<div><div style=""""><a style=""white-space:pre-wrap;""> while a <= 6:
   a *= 3
   a -= 9</a><a style=""""></a></div></div>","15","15","1","95","while a <= 6:
   a *= 3
   a -= 9","15","0"
"","html-keyboard-response","182","449995","0.0-6.0-7.0-1.0-0.0","2277","<div><div style=""""><a style=""white-space:pre-wrap;""> while a <= 6:
   a *= 3
   a -= 9</a><a style=""""></a></div></div>","6","6","1","95","while a <= 6:
   a *= 3
   a -= 9","6","1"
"","html-keyboard-response","183","463195","0.0-6.0-7.0-2.0-0.0","12696","<div><div style=""""><a style=""white-space:pre-wrap;""> while a <= 6:
   a *= 3
   a -= 9</a><a style=""""></a></div></div>","18","18","1","95","while a <= 6:
   a *= 3
   a -= 9","18","2"
"","html-keyboard-response","184","464347","0.0-6.0-7.0-3.0-0.0","636","<div><div style=""""><a style=""white-space:pre-wrap;""> while a <= 6:
   a *= 3
   a -= 9</a><a style=""""></a></div></div>","9","9","1","95","while a <= 6:
   a *= 3
   a -= 9","9","3"
"","html-keyboard-response","185","469147","0.0-6.0-7.0-4.0-0.0","4285","<div><div style=""""><a style=""white-space:pre-wrap;""> while a <= 6:
   a *= 3
   a -= 9</a><a style=""""></a></div></div>","100","backspace","0","95","while a <= 6:
   a *= 3
   a -= 9","backspace","4"
"","html-keyboard-response","186","473156","0.0-6.0-7.0-4.0-1.0-0.0","null","<div><p style=""font-size:25px; color:green;"">end of loop<br>>>>>>></p>
						<div>Hit the ""end loop"" key to continue</div></div>","null","","","","","",""
"","html-keyboard-response","187","474851","0.0-6.0-7.0-4.1-0.1","1692","<div><div style=""""><a style=""white-space:pre-wrap;""> while a <= 6:
   a *= 3
   a -= 9</a><a style=""""></a></div></div>","backspace","backspace","1","95","while a <= 6:
   a *= 3
   a -= 9","backspace","4"
"","html-keyboard-response","188","481075","0.0-6.0-8.0-0.0-0.0","5720","<div><div style=""""><a style=""white-space:pre-wrap;""> while a >= 3:
   a = average(a, 1)</a><a style=""""></a></div></div>","5","5","1","96","while a >= 3:
   a = average(a, 1)","5","0"
"","html-keyboard-response","189","482636","0.0-6.0-8.0-1.0-0.0","1053","<div><div style=""""><a style=""white-space:pre-wrap;""> while a >= 3:
   a = average(a, 1)</a><a style=""""></a></div></div>","3","3","1","96","while a >= 3:
   a = average(a, 1)","3","1"
"","html-keyboard-response","190","483332","0.0-6.0-8.0-2.0-0.0","182","<div><div style=""""><a style=""white-space:pre-wrap;""> while a >= 3:
   a = average(a, 1)</a><a style=""""></a></div></div>","2","2","1","96","while a >= 3:
   a = average(a, 1)","2","2"
"","html-keyboard-response","191","483988","0.0-6.0-8.0-3.0-0.0","148","<div><div style=""""><a style=""white-space:pre-wrap;""> while a >= 3:
   a = average(a, 1)</a><a style=""""></a></div></div>","backspace","backspace","1","96","while a >= 3:
   a = average(a, 1)","backspace","3"
"","html-keyboard-response","192","486980","0.0-6.0-9.0-0.0-0.0","2482","<div><div style=""""><a style=""white-space:pre-wrap;""> while a <= 9:
   a -= 1
   a *= 5</a><a style=""""></a></div></div>","1","1","1","97","while a <= 9:
   a -= 1
   a *= 5","1","0"
"","html-keyboard-response","193","487812","0.0-6.0-9.0-1.0-0.0","318","<div><div style=""""><a style=""white-space:pre-wrap;""> while a <= 9:
   a -= 1
   a *= 5</a><a style=""""></a></div></div>","5","5","1","97","while a <= 9:
   a -= 1
   a *= 5","5","1"
"","html-keyboard-response","194","490068","0.0-6.0-9.0-2.0-0.0","1742","<div><div style=""""><a style=""white-space:pre-wrap;""> while a <= 9:
   a -= 1
   a *= 5</a><a style=""""></a></div></div>","4","4","1","97","while a <= 9:
   a -= 1
   a *= 5","4","2"
"","html-keyboard-response","195","490740","0.0-6.0-9.0-3.0-0.0","154","<div><div style=""""><a style=""white-space:pre-wrap;""> while a <= 9:
   a -= 1
   a *= 5</a><a style=""""></a></div></div>","20","20","1","97","while a <= 9:
   a -= 1
   a *= 5","20","3"
"","html-keyboard-response","196","492124","0.0-6.0-9.0-4.0-0.0","882","<div><div style=""""><a style=""white-space:pre-wrap;""> while a <= 9:
   a -= 1
   a *= 5</a><a style=""""></a></div></div>","backspace","backspace","1","97","while a <= 9:
   a -= 1
   a *= 5","backspace","4"
"","html-keyboard-response","197","495652","0.0-6.0-10.0-0.0-0.0","3019","<div><div style=""""><a style=""white-space:pre-wrap;""> for i in [1, 2, 3]:
   a -= 3</a><a style=""""></a></div></div>","17","17","1","98","for i in [1, 2, 3]:
   a -= 3","17","0"
"","html-keyboard-response","198","496396","0.0-6.0-10.0-1.0-0.0","239","<div><div style=""""><a style=""white-space:pre-wrap;""> for i in [1, 2, 3]:
   a -= 3</a><a style=""""></a></div></div>","14","14","1","98","for i in [1, 2, 3]:
   a -= 3","14","1"
"","html-keyboard-response","199","497076","0.0-6.0-10.0-2.0-0.0","168","<div><div style=""""><a style=""white-space:pre-wrap;""> for i in [1, 2, 3]:
   a -= 3</a><a style=""""></a></div></div>","11","11","1","98","for i in [1, 2, 3]:
   a -= 3","11","2"
"","html-keyboard-response","200","497764","0.0-6.0-10.0-3.0-0.0","185","<div><div style=""""><a style=""white-space:pre-wrap;""> for i in [1, 2, 3]:
   a -= 3</a><a style=""""></a></div></div>","backspace","backspace","1","98","for i in [1, 2, 3]:
   a -= 3","backspace","3"
"","html-keyboard-response","201","501668","0.0-6.0-11.0-0.0-0.0","3386","<div><div style=""""><a style=""white-space:pre-wrap;""> for i in [1, 2]:
   a -= 5</a><a style=""""></a></div></div>","6","6","1","99","for i in [1, 2]:
   a -= 5","6","0"
"","html-keyboard-response","202","503004","0.0-6.0-11.0-1.0-0.0","833","<div><div style=""""><a style=""white-space:pre-wrap;""> for i in [1, 2]:
   a -= 5</a><a style=""""></a></div></div>","1","1","1","99","for i in [1, 2]:
   a -= 5","1","1"
"","html-keyboard-response","203","503587","0.0-6.0-11.0-2.0-0.0","75","<div><div style=""""><a style=""white-space:pre-wrap;""> for i in [1, 2]:
   a -= 5</a><a style=""""></a></div></div>","backspace","backspace","1","99","for i in [1, 2]:
   a -= 5","backspace","2"
"","html-keyboard-response","204","505684","0.0-7.0-1.0","1580","<p style=""font-size: 25px;"">Please press space to start the next program<br>>>>>>></p>"," ","","","","","",""
"","html-keyboard-response","205","507100","0.0-7.0-2.0","1415","<div><div style="" font-size:25px; color:green;""><a style=""white-space:pre-wrap;""> a = 16</a><a style=""""></a></div></div>","","null","","82","a = 16","",""
"","html-keyboard-response","206","510172","0.0-7.0-4.0-0.0-0.0","2563","<div><div style=""""><a style=""white-space:pre-wrap;""> while a >= 6:
   a /= 2</a><a style=""""></a></div></div>","8","8","1","83","while a >= 6:
   a /= 2","8","0"
"","html-keyboard-response","207","511572","0.0-7.0-4.0-1.0-0.0","893","<div><div style=""""><a style=""white-space:pre-wrap;""> while a >= 6:
   a /= 2</a><a style=""""></a></div></div>","4","4","1","83","while a >= 6:
   a /= 2","4","1"
"","html-keyboard-response","208","512324","0.0-7.0-4.0-2.0-0.0","245","<div><div style=""""><a style=""white-space:pre-wrap;""> while a >= 6:
   a /= 2</a><a style=""""></a></div></div>","backspace","backspace","1","83","while a >= 6:
   a /= 2","backspace","2"
"","html-keyboard-response","209","515195","0.0-7.0-5.0-0.0-0.0","2364","<div><div style=""""><a style=""white-space:pre-wrap;""> while a <= 11:
   a = round_up(a*1.5)</a><a style=""""></a></div></div>","6","6","1","84","while a <= 11:
   a = round_up(a*1.5)","6","0"
"","html-keyboard-response","210","520012","0.0-7.0-5.0-1.0-0.0","4309","<div><div style=""""><a style=""white-space:pre-wrap;""> while a <= 11:
   a = round_up(a*1.5)</a><a style=""""></a></div></div>","9","9","1","84","while a <= 11:
   a = round_up(a*1.5)","9","1"
"","html-keyboard-response","211","523500","0.0-7.0-5.0-2.0-0.0","2972","<div><div style=""""><a style=""white-space:pre-wrap;""> while a <= 11:
   a = round_up(a*1.5)</a><a style=""""></a></div></div>","14","14","1","84","while a <= 11:
   a = round_up(a*1.5)","14","2"
"","html-keyboard-response","212","524508","0.0-7.0-5.0-3.0-0.0","501","<div><div style=""""><a style=""white-space:pre-wrap;""> while a <= 11:
   a = round_up(a*1.5)</a><a style=""""></a></div></div>","backspace","backspace","1","84","while a <= 11:
   a = round_up(a*1.5)","backspace","3"
"","html-keyboard-response","213","527644","0.0-7.0-6.0-0.0-0.0","2626","<div><div style=""""><a style=""white-space:pre-wrap;""> for i in [1, 2]:
   a += 5
   a -= 6</a><a style=""""></a></div></div>","19","19","1","85","for i in [1, 2]:
   a += 5
   a -= 6","19","0"
"","html-keyboard-response","214","528836","0.0-7.0-6.0-1.0-0.0","687","<div><div style=""""><a style=""white-space:pre-wrap;""> for i in [1, 2]:
   a += 5
   a -= 6</a><a style=""""></a></div></div>","13","13","1","85","for i in [1, 2]:
   a += 5
   a -= 6","13","1"
"","html-keyboard-response","215","529636","0.0-7.0-6.0-2.0-0.0","282","<div><div style=""""><a style=""white-space:pre-wrap;""> for i in [1, 2]:
   a += 5
   a -= 6</a><a style=""""></a></div></div>","18","18","1","85","for i in [1, 2]:
   a += 5
   a -= 6","18","2"
"","html-keyboard-response","216","530780","0.0-7.0-6.0-3.0-0.0","630","<div><div style=""""><a style=""white-space:pre-wrap;""> for i in [1, 2]:
   a += 5
   a -= 6</a><a style=""""></a></div></div>","12","12","1","85","for i in [1, 2]:
   a += 5
   a -= 6","12","3"
"","html-keyboard-response","217","531580","0.0-7.0-6.0-4.0-0.0","292","<div><div style=""""><a style=""white-space:pre-wrap;""> for i in [1, 2]:
   a += 5
   a -= 6</a><a style=""""></a></div></div>","backspace","backspace","1","85","for i in [1, 2]:
   a += 5
   a -= 6","backspace","4"
"","html-keyboard-response","218","534860","0.0-7.0-7.0-0.0-0.0","2773","<div><div style=""""><a style=""white-space:pre-wrap;""> for i in [1, 2, 3]:
   a = average(a,4)</a><a style=""""></a></div></div>","8","8","1","86","for i in [1, 2, 3]:
   a = average(a,4)","8","0"
"","html-keyboard-response","219","536996","0.0-7.0-7.0-1.0-0.0","1625","<div><div style=""""><a style=""white-space:pre-wrap;""> for i in [1, 2, 3]:
   a = average(a,4)</a><a style=""""></a></div></div>","6","6","1","86","for i in [1, 2, 3]:
   a = average(a,4)","6","1"
"","html-keyboard-response","220","537740","0.0-7.0-7.0-2.0-0.0","237","<div><div style=""""><a style=""white-space:pre-wrap;""> for i in [1, 2, 3]:
   a = average(a,4)</a><a style=""""></a></div></div>","5","5","1","86","for i in [1, 2, 3]:
   a = average(a,4)","5","2"
"","html-keyboard-response","221","538299","0.0-7.0-7.0-3.0-0.0","47","<div><div style=""""><a style=""white-space:pre-wrap;""> for i in [1, 2, 3]:
   a = average(a,4)</a><a style=""""></a></div></div>","backspace","backspace","1","86","for i in [1, 2, 3]:
   a = average(a,4)","backspace","3"
"","html-keyboard-response","222","540531","0.0-7.0-8.0-0.0-0.0","1713","<div><div style=""""><a style=""white-space:pre-wrap;""> while a >= 3:
   a *= 3
   a -= 11</a><a style=""""></a></div></div>","15","15","1","87","while a >= 3:
   a *= 3
   a -= 11","15","0"
"","html-keyboard-response","223","541619","0.0-7.0-8.0-1.0-0.0","580","<div><div style=""""><a style=""white-space:pre-wrap;""> while a >= 3:
   a *= 3
   a -= 11</a><a style=""""></a></div></div>","4","4","1","87","while a >= 3:
   a *= 3
   a -= 11","4","1"
"","html-keyboard-response","224","543651","0.0-7.0-8.0-2.0-0.0","1517","<div><div style=""""><a style=""white-space:pre-wrap;""> while a >= 3:
   a *= 3
   a -= 11</a><a style=""""></a></div></div>","12","12","1","87","while a >= 3:
   a *= 3
   a -= 11","12","2"
"","html-keyboard-response","225","544755","0.0-7.0-8.0-3.0-0.0","597","<div><div style=""""><a style=""white-space:pre-wrap;""> while a >= 3:
   a *= 3
   a -= 11</a><a style=""""></a></div></div>","1","1","1","87","while a >= 3:
   a *= 3
   a -= 11","1","3"
"","html-keyboard-response","226","545547","0.0-7.0-8.0-4.0-0.0","280","<div><div style=""""><a style=""white-space:pre-wrap;""> while a >= 3:
   a *= 3
   a -= 11</a><a style=""""></a></div></div>","backspace","backspace","1","87","while a >= 3:
   a *= 3
   a -= 11","backspace","4"
"","html-keyboard-response","227","547683","0.0-7.0-9.0-0.0-0.0","1618","<div><div style=""""><a style=""white-space:pre-wrap;""> for i in [1, 2]:
   a *= 6
   a /= 2</a><a style=""""></a></div></div>","6","6","1","88","for i in [1, 2]:
   a *= 6
   a /= 2","6","0"
"","html-keyboard-response","228","549939","0.0-7.0-9.0-1.0-0.0","1746","<div><div style=""""><a style=""white-space:pre-wrap;""> for i in [1, 2]:
   a *= 6
   a /= 2</a><a style=""""></a></div></div>","3","3","1","88","for i in [1, 2]:
   a *= 6
   a /= 2","3","1"
"","html-keyboard-response","229","551371","0.0-7.0-9.0-2.0-0.0","925","<div><div style=""""><a style=""white-space:pre-wrap;""> for i in [1, 2]:
   a *= 6
   a /= 2</a><a style=""""></a></div></div>","18","18","1","88","for i in [1, 2]:
   a *= 6
   a /= 2","18","2"
"","html-keyboard-response","230","552627","0.0-7.0-9.0-3.0-0.0","747","<div><div style=""""><a style=""white-space:pre-wrap;""> for i in [1, 2]:
   a *= 6
   a /= 2</a><a style=""""></a></div></div>","9","9","1","88","for i in [1, 2]:
   a *= 6
   a /= 2","9","3"
"","html-keyboard-response","231","553227","0.0-7.0-9.0-4.0-0.0","90","<div><div style=""""><a style=""white-space:pre-wrap;""> for i in [1, 2]:
   a *= 6
   a /= 2</a><a style=""""></a></div></div>","backspace","backspace","1","88","for i in [1, 2]:
   a *= 6
   a /= 2","backspace","4"
"","html-keyboard-response","232","555915","0.0-7.0-10.0-0.0-0.0","2182","<div><div style=""""><a style=""white-space:pre-wrap;""> for i in [1, 2]:
   a -= 2</a><a style=""""></a></div></div>","7","7","1","89","for i in [1, 2]:
   a -= 2","7","0"
"","html-keyboard-response","233","556595","0.0-7.0-10.0-1.0-0.0","172","<div><div style=""""><a style=""white-space:pre-wrap;""> for i in [1, 2]:
   a -= 2</a><a style=""""></a></div></div>","5","5","1","89","for i in [1, 2]:
   a -= 2","5","1"
"","html-keyboard-response","234","557163","0.0-7.0-10.0-2.0-0.0","55","<div><div style=""""><a style=""white-space:pre-wrap;""> for i in [1, 2]:
   a -= 2</a><a style=""""></a></div></div>","backspace","backspace","1","89","for i in [1, 2]:
   a -= 2","backspace","2"
"","html-keyboard-response","235","559867","0.0-7.0-11.0-0.0-0.0","2194","<div><div style=""""><a style=""white-space:pre-wrap;""> while a <= 7:
   a += 9
   a /= 2</a><a style=""""></a></div></div>","14","14","1","90","while a <= 7:
   a += 9
   a /= 2","14","0"
"","html-keyboard-response","236","560891","0.0-7.0-11.0-1.0-0.0","514","<div><div style=""""><a style=""white-space:pre-wrap;""> while a <= 7:
   a += 9
   a /= 2</a><a style=""""></a></div></div>","7","7","1","90","while a <= 7:
   a += 9
   a /= 2","7","1"
"","html-keyboard-response","237","566539","0.0-7.0-11.0-2.0-0.0","5134","<div><div style=""""><a style=""white-space:pre-wrap;""> while a <= 7:
   a += 9
   a /= 2</a><a style=""""></a></div></div>","16","16","1","90","while a <= 7:
   a += 9
   a /= 2","16","2"
"","html-keyboard-response","238","568491","0.0-7.0-11.0-3.0-0.0","1447","<div><div style=""""><a style=""white-space:pre-wrap;""> while a <= 7:
   a += 9
   a /= 2</a><a style=""""></a></div></div>","8","8","1","90","while a <= 7:
   a += 9
   a /= 2","8","3"
"","html-keyboard-response","239","569163","0.0-7.0-11.0-4.0-0.0","160","<div><div style=""""><a style=""white-space:pre-wrap;""> while a <= 7:
   a += 9
   a /= 2</a><a style=""""></a></div></div>","backspace","backspace","1","90","while a <= 7:
   a += 9
   a /= 2","backspace","4"
"","html-keyboard-response","240","571043","0.0-8.0-1.0","1366","<p style=""font-size: 25px;"">Please press space to start the next program<br>>>>>>></p>"," ","","","","","",""
"","html-keyboard-response","241","572955","0.0-8.0-2.0","1910","<div><div style="" font-size:25px; color:green;""><a style=""white-space:pre-wrap;""> a = 8</a><a style=""""></a></div></div>","","null","","46","a = 8","",""
"","html-keyboard-response","242","576051","0.0-8.0-4.0-0.0-0.0","2584","<div><div style=""""><a style=""white-space:pre-wrap;""> while a <= 17:
   a -= 2
   a += 6</a><a style=""""></a></div></div>","6","6","1","47","while a <= 17:
   a -= 2
   a += 6","6","0"
"","html-keyboard-response","243","577227","0.0-8.0-4.0-1.0-0.0","667","<div><div style=""""><a style=""white-space:pre-wrap;""> while a <= 17:
   a -= 2
   a += 6</a><a style=""""></a></div></div>","12","12","1","47","while a <= 17:
   a -= 2
   a += 6","12","1"
"","html-keyboard-response","244","578051","0.0-8.0-4.0-2.0-0.0","320","<div><div style=""""><a style=""white-space:pre-wrap;""> while a <= 17:
   a -= 2
   a += 6</a><a style=""""></a></div></div>","10","10","1","47","while a <= 17:
   a -= 2
   a += 6","10","2"
"","html-keyboard-response","245","579291","0.0-8.0-4.0-3.0-0.0","733","<div><div style=""""><a style=""white-space:pre-wrap;""> while a <= 17:
   a -= 2
   a += 6</a><a style=""""></a></div></div>","16","16","1","47","while a <= 17:
   a -= 2
   a += 6","16","3"
"","html-keyboard-response","246","581483","0.0-8.0-4.0-4.0-0.0","1688","<div><div style=""""><a style=""white-space:pre-wrap;""> while a <= 17:
   a -= 2
   a += 6</a><a style=""""></a></div></div>","14","14","1","47","while a <= 17:
   a -= 2
   a += 6","14","4"
"","html-keyboard-response","247","582115","0.0-8.0-4.0-5.0-0.0","114","<div><div style=""""><a style=""white-space:pre-wrap;""> while a <= 17:
   a -= 2
   a += 6</a><a style=""""></a></div></div>","20","20","1","47","while a <= 17:
   a -= 2
   a += 6","20","5"
"","html-keyboard-response","248","582715","0.0-8.0-4.0-6.0-0.0","89","<div><div style=""""><a style=""white-space:pre-wrap;""> while a <= 17:
   a -= 2
   a += 6</a><a style=""""></a></div></div>","backspace","backspace","1","47","while a <= 17:
   a -= 2
   a += 6","backspace","6"
"","html-keyboard-response","249","585709","0.0-8.0-5.0-0.0-0.0","2487","<div><div style=""""><a style=""white-space:pre-wrap;""> while a >= 8:
   a /= 2</a><a style=""""></a></div></div>","10","10","1","48","while a >= 8:
   a /= 2","10","0"
"","html-keyboard-response","250","586595","0.0-8.0-5.0-1.0-0.0","384","<div><div style=""""><a style=""white-space:pre-wrap;""> while a >= 8:
   a /= 2</a><a style=""""></a></div></div>","5","5","1","48","while a >= 8:
   a /= 2","5","1"
"","html-keyboard-response","251","587259","0.0-8.0-5.0-2.0-0.0","148","<div><div style=""""><a style=""white-space:pre-wrap;""> while a >= 8:
   a /= 2</a><a style=""""></a></div></div>","backspace","backspace","1","48","while a >= 8:
   a /= 2","backspace","2"
"","html-keyboard-response","252","592379","0.0-8.0-6.0-0.0-0.0","4610","<div><div style=""""><a style=""white-space:pre-wrap;""> for i in [1, 2, 3]:
   a = round_up(a*1.5)</a><a style=""""></a></div></div>","8","8","1","49","for i in [1, 2, 3]:
   a = round_up(a*1.5)","8","0"
"","html-keyboard-response","253","594443","0.0-8.0-6.0-1.0-0.0","1553","<div><div style=""""><a style=""white-space:pre-wrap;""> for i in [1, 2, 3]:
   a = round_up(a*1.5)</a><a style=""""></a></div></div>","12","12","1","49","for i in [1, 2, 3]:
   a = round_up(a*1.5)","12","1"
"","html-keyboard-response","254","597747","0.0-8.0-6.0-2.0-0.0","2789","<div><div style=""""><a style=""white-space:pre-wrap;""> for i in [1, 2, 3]:
   a = round_up(a*1.5)</a><a style=""""></a></div></div>","18","18","1","49","for i in [1, 2, 3]:
   a = round_up(a*1.5)","18","2"
"","html-keyboard-response","255","598515","0.0-8.0-6.0-3.0-0.0","251","<div><div style=""""><a style=""white-space:pre-wrap;""> for i in [1, 2, 3]:
   a = round_up(a*1.5)</a><a style=""""></a></div></div>","backspace","backspace","1","49","for i in [1, 2, 3]:
   a = round_up(a*1.5)","backspace","3"
"","html-keyboard-response","256","602188","0.0-8.0-7.0-0.0-0.0","3158","<div><div style=""""><a style=""white-space:pre-wrap;""> while a >= 4:
   a = average(a,2)</a><a style=""""></a></div></div>","10","10","1","50","while a >= 4:
   a = average(a,2)","10","0"
"","html-keyboard-response","257","604962","0.0-8.0-7.0-1.0-0.0","2259","<div><div style=""""><a style=""white-space:pre-wrap;""> while a >= 4:
   a = average(a,2)</a><a style=""""></a></div></div>","6","6","1","50","while a >= 4:
   a = average(a,2)","6","1"
"","html-keyboard-response","258","606556","0.0-8.0-7.0-2.0-0.0","1087","<div><div style=""""><a style=""white-space:pre-wrap;""> while a >= 4:
   a = average(a,2)</a><a style=""""></a></div></div>","4","4","1","50","while a >= 4:
   a = average(a,2)","4","2"
"","html-keyboard-response","259","607236","0.0-8.0-7.0-3.0-0.0","174","<div><div style=""""><a style=""white-space:pre-wrap;""> while a >= 4:
   a = average(a,2)</a><a style=""""></a></div></div>","3","3","1","50","while a >= 4:
   a = average(a,2)","3","3"
"","html-keyboard-response","260","607932","0.0-8.0-7.0-4.0-0.0","184","<div><div style=""""><a style=""white-space:pre-wrap;""> while a >= 4:
   a = average(a,2)</a><a style=""""></a></div></div>","backspace","backspace","1","50","while a >= 4:
   a = average(a,2)","backspace","4"
"","html-keyboard-response","261","610596","0.0-8.0-8.0-0.0-0.0","2160","<div><div style=""""><a style=""white-space:pre-wrap;""> while a <= 5:
   a += 7
   a /= 2</a><a style=""""></a></div></div>","10","10","1","51","while a <= 5:
   a += 7
   a /= 2","10","0"
"","html-keyboard-response","262","612460","0.0-8.0-8.0-1.0-0.0","1347","<div><div style=""""><a style=""white-space:pre-wrap;""> while a <= 5:
   a += 7
   a /= 2</a><a style=""""></a></div></div>","5","5","1","51","while a <= 5:
   a += 7
   a /= 2","5","1"
"","html-keyboard-response","263","617012","0.0-8.0-8.0-2.0-0.0","4041","<div><div style=""""><a style=""white-space:pre-wrap;""> while a <= 5:
   a += 7
   a /= 2</a><a style=""""></a></div></div>","12","12","1","51","while a <= 5:
   a += 7
   a /= 2","12","2"
"","html-keyboard-response","264","617940","0.0-8.0-8.0-3.0-0.0","412","<div><div style=""""><a style=""white-space:pre-wrap;""> while a <= 5:
   a += 7
   a /= 2</a><a style=""""></a></div></div>","6","6","1","51","while a <= 5:
   a += 7
   a /= 2","6","3"
"","html-keyboard-response","265","618795","0.0-8.0-8.0-4.0-0.0","340","<div><div style=""""><a style=""white-space:pre-wrap;""> while a <= 5:
   a += 7
   a /= 2</a><a style=""""></a></div></div>","backspace","backspace","1","51","while a <= 5:
   a += 7
   a /= 2","backspace","4"
"","html-keyboard-response","266","621324","0.0-8.0-9.0-0.0-0.0","2025","<div><div style=""""><a style=""white-space:pre-wrap;""> for i in [1, 2, 3, 4]:
   a += 3</a><a style=""""></a></div></div>","9","9","1","52","for i in [1, 2, 3, 4]:
   a += 3","9","0"
"","html-keyboard-response","267","621940","0.0-8.0-9.0-1.0-0.0","108","<div><div style=""""><a style=""white-space:pre-wrap;""> for i in [1, 2, 3, 4]:
   a += 3</a><a style=""""></a></div></div>","12","12","1","52","for i in [1, 2, 3, 4]:
   a += 3","12","1"
"","html-keyboard-response","268","622612","0.0-8.0-9.0-2.0-0.0","170","<div><div style=""""><a style=""white-space:pre-wrap;""> for i in [1, 2, 3, 4]:
   a += 3</a><a style=""""></a></div></div>","15","15","1","52","for i in [1, 2, 3, 4]:
   a += 3","15","2"
"","html-keyboard-response","269","623276","0.0-8.0-9.0-3.0-0.0","146","<div><div style=""""><a style=""white-space:pre-wrap;""> for i in [1, 2, 3, 4]:
   a += 3</a><a style=""""></a></div></div>","18","18","1","52","for i in [1, 2, 3, 4]:
   a += 3","18","3"
"","html-keyboard-response","270","623916","0.0-8.0-9.0-4.0-0.0","128","<div><div style=""""><a style=""white-space:pre-wrap;""> for i in [1, 2, 3, 4]:
   a += 3</a><a style=""""></a></div></div>","backspace","backspace","1","52","for i in [1, 2, 3, 4]:
   a += 3","backspace","4"
"","html-keyboard-response","271","626627","0.0-8.0-10.0-0.0-0.0","2196","<div><div style=""""><a style=""white-space:pre-wrap;""> while a >= 12:
   a /= 3
   a *= 2</a><a style=""""></a></div></div>","6","6","1","53","while a >= 12:
   a /= 3
   a *= 2","6","0"
"","html-keyboard-response","272","627604","0.0-8.0-10.0-1.0-0.0","464","<div><div style=""""><a style=""white-space:pre-wrap;""> while a >= 12:
   a /= 3
   a *= 2</a><a style=""""></a></div></div>","12","12","1","53","while a >= 12:
   a /= 3
   a *= 2","12","1"
"","html-keyboard-response","273","629492","0.0-8.0-10.0-2.0-0.0","1383","<div><div style=""""><a style=""white-space:pre-wrap;""> while a >= 12:
   a /= 3
   a *= 2</a><a style=""""></a></div></div>","4","4","1","53","while a >= 12:
   a /= 3
   a *= 2","4","2"
"","html-keyboard-response","274","630380","0.0-8.0-10.0-3.0-0.0","377","<div><div style=""""><a style=""white-space:pre-wrap;""> while a >= 12:
   a /= 3
   a *= 2</a><a style=""""></a></div></div>","8","8","1","53","while a >= 12:
   a /= 3
   a *= 2","8","3"
"","html-keyboard-response","275","632052","0.0-8.0-10.0-4.0-0.0","1158","<div><div style=""""><a style=""white-space:pre-wrap;""> while a >= 12:
   a /= 3
   a *= 2</a><a style=""""></a></div></div>","backspace","backspace","1","53","while a >= 12:
   a /= 3
   a *= 2","backspace","4"
"","html-keyboard-response","276","636388","0.0-8.0-11.0-0.0-0.0","3824","<div><div style=""""><a style=""white-space:pre-wrap;""> while a >= 3:
   a *= 2
   a -= 9</a><a style=""""></a></div></div>","16","16","1","54","while a >= 3:
   a *= 2
   a -= 9","16","0"
"","html-keyboard-response","277","637347","0.0-8.0-11.0-1.0-0.0","452","<div><div style=""""><a style=""white-space:pre-wrap;""> while a >= 3:
   a *= 2
   a -= 9</a><a style=""""></a></div></div>","7","7","1","54","while a >= 3:
   a *= 2
   a -= 9","7","1"
"","html-keyboard-response","278","639267","0.0-8.0-11.0-2.0-0.0","1404","<div><div style=""""><a style=""white-space:pre-wrap;""> while a >= 3:
   a *= 2
   a -= 9</a><a style=""""></a></div></div>","14","14","1","54","while a >= 3:
   a *= 2
   a -= 9","14","2"
"","html-keyboard-response","279","641604","0.0-8.0-11.0-3.0-0.0","1821","<div><div style=""""><a style=""white-space:pre-wrap;""> while a >= 3:
   a *= 2
   a -= 9</a><a style=""""></a></div></div>","5","5","1","54","while a >= 3:
   a *= 2
   a -= 9","5","3"
"","html-keyboard-response","280","643956","0.0-8.0-11.0-4.0-0.0","1837","<div><div style=""""><a style=""white-space:pre-wrap;""> while a >= 3:
   a *= 2
   a -= 9</a><a style=""""></a></div></div>","10","10","1","54","while a >= 3:
   a *= 2
   a -= 9","10","4"
"","html-keyboard-response","281","644612","0.0-8.0-11.0-5.0-0.0","140","<div><div style=""""><a style=""white-space:pre-wrap;""> while a >= 3:
   a *= 2
   a -= 9</a><a style=""""></a></div></div>","1","1","1","54","while a >= 3:
   a *= 2
   a -= 9","1","5"
"","html-keyboard-response","282","645324","0.0-8.0-11.0-6.0-0.0","195","<div><div style=""""><a style=""white-space:pre-wrap;""> while a >= 3:
   a *= 2
   a -= 9</a><a style=""""></a></div></div>","backspace","backspace","1","54","while a >= 3:
   a *= 2
   a -= 9","backspace","6"
"","html-keyboard-response","283","647404","0.0-9.0-1.0","1572","<p style=""font-size: 25px;"">Please press space to start the next program<br>>>>>>></p>"," ","","","","","",""
"","html-keyboard-response","284","648180","0.0-9.0-2.0","774","<div><div style="" font-size:25px; color:green;""><a style=""white-space:pre-wrap;""> a = 16</a><a style=""""></a></div></div>","","null","","73","a = 16","",""
"","html-keyboard-response","285","650524","0.0-9.0-4.0-0.0-0.0","1828","<div><div style=""""><a style=""white-space:pre-wrap;""> for i in [1, 2]:
   a /= 2</a><a style=""""></a></div></div>","8","8","1","74","for i in [1, 2]:
   a /= 2","8","0"
"","html-keyboard-response","286","651292","0.0-9.0-4.0-1.0-0.0","260","<div><div style=""""><a style=""white-space:pre-wrap;""> for i in [1, 2]:
   a /= 2</a><a style=""""></a></div></div>","4","4","1","74","for i in [1, 2]:
   a /= 2","4","1"
"","html-keyboard-response","287","651924","0.0-9.0-4.0-2.0-0.0","121","<div><div style=""""><a style=""white-space:pre-wrap;""> for i in [1, 2]:
   a /= 2</a><a style=""""></a></div></div>","backspace","backspace","1","74","for i in [1, 2]:
   a /= 2","backspace","2"
"","html-keyboard-response","288","654444","0.0-9.0-5.0-0.0-0.0","2001","<div><div style=""""><a style=""white-space:pre-wrap;""> while a <= 11:
   a = round_up(a*1.5)</a><a style=""""></a></div></div>","6","6","1","75","while a <= 11:
   a = round_up(a*1.5)","6","0"
"","html-keyboard-response","289","655412","0.0-9.0-5.0-1.0-0.0","466","<div><div style=""""><a style=""white-space:pre-wrap;""> while a <= 11:
   a = round_up(a*1.5)</a><a style=""""></a></div></div>","9","9","1","75","while a <= 11:
   a = round_up(a*1.5)","9","1"
"","html-keyboard-response","290","659460","0.0-9.0-5.0-2.0-0.0","3531","<div><div style=""""><a style=""white-space:pre-wrap;""> while a <= 11:
   a = round_up(a*1.5)</a><a style=""""></a></div></div>","14","14","1","75","while a <= 11:
   a = round_up(a*1.5)","14","2"
"","html-keyboard-response","291","661220","0.0-9.0-5.0-3.0-0.0","1257","<div><div style=""""><a style=""white-space:pre-wrap;""> while a <= 11:
   a = round_up(a*1.5)</a><a style=""""></a></div></div>","backspace","backspace","1","75","while a <= 11:
   a = round_up(a*1.5)","backspace","3"
"","html-keyboard-response","292","663955","0.0-9.0-6.0-0.0-0.0","2220","<div><div style=""""><a style=""white-space:pre-wrap;""> while a >= 13:
   a += 5
   a -= 6</a><a style=""""></a></div></div>","19","19","1","76","while a >= 13:
   a += 5
   a -= 6","19","0"
"","html-keyboard-response","293","664875","0.0-9.0-6.0-1.0-0.0","409","<div><div style=""""><a style=""white-space:pre-wrap;""> while a >= 13:
   a += 5
   a -= 6</a><a style=""""></a></div></div>","13","13","1","76","while a >= 13:
   a += 5
   a -= 6","13","1"
"","html-keyboard-response","294","667467","0.0-9.0-6.0-2.0-0.0","2078","<div><div style=""""><a style=""white-space:pre-wrap;""> while a >= 13:
   a += 5
   a -= 6</a><a style=""""></a></div></div>","18","18","1","76","while a >= 13:
   a += 5
   a -= 6","18","2"
"","html-keyboard-response","295","668619","0.0-9.0-6.0-3.0-0.0","638","<div><div style=""""><a style=""white-space:pre-wrap;""> while a >= 13:
   a += 5
   a -= 6</a><a style=""""></a></div></div>","12","12","1","76","while a >= 13:
   a += 5
   a -= 6","12","3"
"","html-keyboard-response","296","671691","0.0-9.0-6.0-4.0-0.0","2555","<div><div style=""""><a style=""white-space:pre-wrap;""> while a >= 13:
   a += 5
   a -= 6</a><a style=""""></a></div></div>","backspace","backspace","1","76","while a >= 13:
   a += 5
   a -= 6","backspace","4"
"","html-keyboard-response","297","674747","0.0-9.0-7.0-0.0-0.0","2541","<div><div style=""""><a style=""white-space:pre-wrap;""> for i in [1, 2, 3]:
   a = average(a,4)</a><a style=""""></a></div></div>","8","8","1","77","for i in [1, 2, 3]:
   a = average(a,4)","8","0"
"","html-keyboard-response","298","675859","0.0-9.0-7.0-1.0-0.0","608","<div><div style=""""><a style=""white-space:pre-wrap;""> for i in [1, 2, 3]:
   a = average(a,4)</a><a style=""""></a></div></div>","6","6","1","77","for i in [1, 2, 3]:
   a = average(a,4)","6","1"
"","html-keyboard-response","299","676635","0.0-9.0-7.0-2.0-0.0","261","<div><div style=""""><a style=""white-space:pre-wrap;""> for i in [1, 2, 3]:
   a = average(a,4)</a><a style=""""></a></div></div>","5","5","1","77","for i in [1, 2, 3]:
   a = average(a,4)","5","2"
"","html-keyboard-response","300","677283","0.0-9.0-7.0-3.0-0.0","139","<div><div style=""""><a style=""white-space:pre-wrap;""> for i in [1, 2, 3]:
   a = average(a,4)</a><a style=""""></a></div></div>","backspace","backspace","1","77","for i in [1, 2, 3]:
   a = average(a,4)","backspace","3"
"","html-keyboard-response","301","680459","0.0-9.0-8.0-0.0-0.0","2661","<div><div style=""""><a style=""white-space:pre-wrap;""> for i in [1, 2]:
   a *= 3
   a -= 11</a><a style=""""></a></div></div>","15","15","1","78","for i in [1, 2]:
   a *= 3
   a -= 11","15","0"
"","html-keyboard-response","302","681387","0.0-9.0-8.0-1.0-0.0","415","<div><div style=""""><a style=""white-space:pre-wrap;""> for i in [1, 2]:
   a *= 3
   a -= 11</a><a style=""""></a></div></div>","4","4","1","78","for i in [1, 2]:
   a *= 3
   a -= 11","4","1"
"","html-keyboard-response","303","684283","0.0-9.0-8.0-2.0-0.0","2388","<div><div style=""""><a style=""white-space:pre-wrap;""> for i in [1, 2]:
   a *= 3
   a -= 11</a><a style=""""></a></div></div>","12","12","1","78","for i in [1, 2]:
   a *= 3
   a -= 11","12","2"
"","html-keyboard-response","304","685171","0.0-9.0-8.0-3.0-0.0","377","<div><div style=""""><a style=""white-space:pre-wrap;""> for i in [1, 2]:
   a *= 3
   a -= 11</a><a style=""""></a></div></div>","1","1","1","78","for i in [1, 2]:
   a *= 3
   a -= 11","1","3"
"","html-keyboard-response","305","686179","0.0-9.0-8.0-4.0-0.0","491","<div><div style=""""><a style=""white-space:pre-wrap;""> for i in [1, 2]:
   a *= 3
   a -= 11</a><a style=""""></a></div></div>","backspace","backspace","1","78","for i in [1, 2]:
   a *= 3
   a -= 11","backspace","4"
"","html-keyboard-response","306","689227","0.0-9.0-9.0-0.0-0.0","2537","<div><div style=""""><a style=""white-space:pre-wrap;""> for i in [1, 2]:
   a *= 6
   a /= 2</a><a style=""""></a></div></div>","6","6","1","79","for i in [1, 2]:
   a *= 6
   a /= 2","6","0"
"","html-keyboard-response","307","689803","0.0-9.0-9.0-1.0-0.0","64","<div><div style=""""><a style=""white-space:pre-wrap;""> for i in [1, 2]:
   a *= 6
   a /= 2</a><a style=""""></a></div></div>","3","3","1","79","for i in [1, 2]:
   a *= 6
   a /= 2","3","1"
"","html-keyboard-response","308","691891","0.0-9.0-9.0-2.0-0.0","1571","<div><div style=""""><a style=""white-space:pre-wrap;""> for i in [1, 2]:
   a *= 6
   a /= 2</a><a style=""""></a></div></div>","18","18","1","79","for i in [1, 2]:
   a *= 6
   a /= 2","18","2"
"","html-keyboard-response","309","693195","0.0-9.0-9.0-3.0-0.0","788","<div><div style=""""><a style=""white-space:pre-wrap;""> for i in [1, 2]:
   a *= 6
   a /= 2</a><a style=""""></a></div></div>","9","9","1","79","for i in [1, 2]:
   a *= 6
   a /= 2","9","3"
"","html-keyboard-response","310","694219","0.0-9.0-9.0-4.0-0.0","519","<div><div style=""""><a style=""white-space:pre-wrap;""> for i in [1, 2]:
   a *= 6
   a /= 2</a><a style=""""></a></div></div>","backspace","backspace","1","79","for i in [1, 2]:
   a *= 6
   a /= 2","backspace","4"
"","html-keyboard-response","311","697675","0.0-9.0-10.0-0.0-0.0","2947","<div><div style=""""><a style=""white-space:pre-wrap;""> while a >= 7:
   a -= 2</a><a style=""""></a></div></div>","7","7","1","80","while a >= 7:
   a -= 2","7","0"
"","html-keyboard-response","312","698355","0.0-9.0-10.0-1.0-0.0","169","<div><div style=""""><a style=""white-space:pre-wrap;""> while a >= 7:
   a -= 2</a><a style=""""></a></div></div>","5","5","1","80","while a >= 7:
   a -= 2","5","1"
"","html-keyboard-response","313","698899","0.0-9.0-10.0-2.0-0.0","42","<div><div style=""""><a style=""white-space:pre-wrap;""> while a >= 7:
   a -= 2</a><a style=""""></a></div></div>","backspace","backspace","1","80","while a >= 7:
   a -= 2","backspace","2"
"","html-keyboard-response","314","702203","0.0-9.0-11.0-0.0-0.0","2799","<div><div style=""""><a style=""white-space:pre-wrap;""> while a <= 7:
   a += 9
   a /= 2</a><a style=""""></a></div></div>","14","14","1","81","while a <= 7:
   a += 9
   a /= 2","14","0"
"","html-keyboard-response","315","703419","0.0-9.0-11.0-1.0-0.0","711","<div><div style=""""><a style=""white-space:pre-wrap;""> while a <= 7:
   a += 9
   a /= 2</a><a style=""""></a></div></div>","7","7","1","81","while a <= 7:
   a += 9
   a /= 2","7","1"
"","html-keyboard-response","316","704851","0.0-9.0-11.0-2.0-0.0","918","<div><div style=""""><a style=""white-space:pre-wrap;""> while a <= 7:
   a += 9
   a /= 2</a><a style=""""></a></div></div>","16","16","1","81","while a <= 7:
   a += 9
   a /= 2","16","2"
"","html-keyboard-response","317","707019","0.0-9.0-11.0-3.0-0.0","1663","<div><div style=""""><a style=""white-space:pre-wrap;""> while a <= 7:
   a += 9
   a /= 2</a><a style=""""></a></div></div>","8","8","1","81","while a <= 7:
   a += 9
   a /= 2","8","3"
"","html-keyboard-response","318","707707","0.0-9.0-11.0-4.0-0.0","177","<div><div style=""""><a style=""white-space:pre-wrap;""> while a <= 7:
   a += 9
   a /= 2</a><a style=""""></a></div></div>","backspace","backspace","1","81","while a <= 7:
   a += 9
   a /= 2","backspace","4"
"","html-keyboard-response","319","830239","0.0-10.0-0.0-0.0","121995","<p style=""position:absolute; top:30%; font-size:25px; color:green;"" >Take a short break now</p>"," ","","","","","",""
"","html-keyboard-response","320","832807","0.0-10.0-1.0","2566","<p style=""font-size: 25px;"">Please press space to start the next program<br>>>>>>></p>"," ","","","","","",""
"","html-keyboard-response","321","834199","0.0-10.0-2.0","1390","<div><div style="" font-size:25px; color:green;""><a style=""white-space:pre-wrap;""> a = 11</a><a style=""""></a></div></div>","","null","","55","a = 11","",""
"","html-keyboard-response","322","836815","0.0-10.0-4.0-0.0-0.0","2108","<div><div style=""""><a style=""white-space:pre-wrap;""> while a >= 5:
   a += 4
   a /= 3</a><a style=""""></a></div></div>","15","15","1","56","while a >= 5:
   a += 4
   a /= 3","15","0"
"","html-keyboard-response","323","837431","0.0-10.0-4.0-1.0-0.0","105","<div><div style=""""><a style=""white-space:pre-wrap;""> while a >= 5:
   a += 4
   a /= 3</a><a style=""""></a></div></div>","5","5","1","56","while a >= 5:
   a += 4
   a /= 3","5","1"
"","html-keyboard-response","324","838807","0.0-10.0-4.0-2.0-0.0","874","<div><div style=""""><a style=""white-space:pre-wrap;""> while a >= 5:
   a += 4
   a /= 3</a><a style=""""></a></div></div>","9","9","1","56","while a >= 5:
   a += 4
   a /= 3","9","2"
"","html-keyboard-response","325","840119","0.0-10.0-4.0-3.0-0.0","799","<div><div style=""""><a style=""white-space:pre-wrap;""> while a >= 5:
   a += 4
   a /= 3</a><a style=""""></a></div></div>","3","3","1","56","while a >= 5:
   a += 4
   a /= 3","3","3"
"","html-keyboard-response","326","840911","0.0-10.0-4.0-4.0-0.0","285","<div><div style=""""><a style=""white-space:pre-wrap;""> while a >= 5:
   a += 4
   a /= 3</a><a style=""""></a></div></div>","backspace","backspace","1","56","while a >= 5:
   a += 4
   a /= 3","backspace","4"
"","html-keyboard-response","327","846759","0.0-10.0-5.0-0.0-0.0","5337","<div><div style=""""><a style=""white-space:pre-wrap;""> for i in [1, 2]:
   a = round_down(a*2.5)</a><a style=""""></a></div></div>","7","7","1","57","for i in [1, 2]:
   a = round_down(a*2.5)","7","0"
"","html-keyboard-response","328","852119","0.0-10.0-5.0-1.0-0.0","4857","<div><div style=""""><a style=""white-space:pre-wrap;""> for i in [1, 2]:
   a = round_down(a*2.5)</a><a style=""""></a></div></div>","17","17","1","57","for i in [1, 2]:
   a = round_down(a*2.5)","17","1"
"","html-keyboard-response","329","852783","0.0-10.0-5.0-2.0-0.0","154","<div><div style=""""><a style=""white-space:pre-wrap;""> for i in [1, 2]:
   a = round_down(a*2.5)</a><a style=""""></a></div></div>","backspace","backspace","1","57","for i in [1, 2]:
   a = round_down(a*2.5)","backspace","2"
"","html-keyboard-response","330","855511","0.0-10.0-6.0-0.0-0.0","2211","<div><div style=""""><a style=""white-space:pre-wrap;""> for i in [1, 2, 3, 4]:
   a = average(a,1)</a><a style=""""></a></div></div>","9","9","1","58","for i in [1, 2, 3, 4]:
   a = average(a,1)","9","0"
"","html-keyboard-response","331","857791","0.0-10.0-6.0-1.0-0.0","1767","<div><div style=""""><a style=""white-space:pre-wrap;""> for i in [1, 2, 3, 4]:
   a = average(a,1)</a><a style=""""></a></div></div>","5","5","1","58","for i in [1, 2, 3, 4]:
   a = average(a,1)","5","1"
"","html-keyboard-response","332","858967","0.0-10.0-6.0-2.0-0.0","667","<div><div style=""""><a style=""white-space:pre-wrap;""> for i in [1, 2, 3, 4]:
   a = average(a,1)</a><a style=""""></a></div></div>","3","3","1","58","for i in [1, 2, 3, 4]:
   a = average(a,1)","3","2"
"","html-keyboard-response","333","859727","0.0-10.0-6.0-3.0-0.0","256","<div><div style=""""><a style=""white-space:pre-wrap;""> for i in [1, 2, 3, 4]:
   a = average(a,1)</a><a style=""""></a></div></div>","2","2","1","58","for i in [1, 2, 3, 4]:
   a = average(a,1)","2","3"
"","html-keyboard-response","334","860343","0.0-10.0-6.0-4.0-0.0","110","<div><div style=""""><a style=""white-space:pre-wrap;""> for i in [1, 2, 3, 4]:
   a = average(a,1)</a><a style=""""></a></div></div>","backspace","backspace","1","58","for i in [1, 2, 3, 4]:
   a = average(a,1)","backspace","4"
"","html-keyboard-response","335","862591","0.0-10.0-7.0-0.0-0.0","1731","<div><div style=""""><a style=""white-space:pre-wrap;""> for i in [1, 2]:
   a *= 3
   a -= 1</a><a style=""""></a></div></div>","6","6","1","59","for i in [1, 2]:
   a *= 3
   a -= 1","6","0"
"","html-keyboard-response","336","863247","0.0-10.0-7.0-1.0-0.0","139","<div><div style=""""><a style=""white-space:pre-wrap;""> for i in [1, 2]:
   a *= 3
   a -= 1</a><a style=""""></a></div></div>","5","5","1","59","for i in [1, 2]:
   a *= 3
   a -= 1","5","1"
"","html-keyboard-response","337","866447","0.0-10.0-7.0-2.0-0.0","2683","<div><div style=""""><a style=""white-space:pre-wrap;""> for i in [1, 2]:
   a *= 3
   a -= 1</a><a style=""""></a></div></div>","15","15","1","59","for i in [1, 2]:
   a *= 3
   a -= 1","15","2"
"","html-keyboard-response","338","867255","0.0-10.0-7.0-3.0-0.0","292","<div><div style=""""><a style=""white-space:pre-wrap;""> for i in [1, 2]:
   a *= 3
   a -= 1</a><a style=""""></a></div></div>","14","14","1","59","for i in [1, 2]:
   a *= 3
   a -= 1","14","3"
"","html-keyboard-response","339","868095","0.0-10.0-7.0-4.0-0.0","325","<div><div style=""""><a style=""white-space:pre-wrap;""> for i in [1, 2]:
   a *= 3
   a -= 1</a><a style=""""></a></div></div>","backspace","backspace","1","59","for i in [1, 2]:
   a *= 3
   a -= 1","backspace","4"
"","html-keyboard-response","340","871591","0.0-10.0-8.0-0.0-0.0","2993","<div><div style=""""><a style=""white-space:pre-wrap;""> while a >= 4:
   a -= 5
   a += 1</a><a style=""""></a></div></div>","9","9","1","60","while a >= 4:
   a -= 5
   a += 1","9","0"
"","html-keyboard-response","341","872927","0.0-10.0-8.0-1.0-0.0","825","<div><div style=""""><a style=""white-space:pre-wrap;""> while a >= 4:
   a -= 5
   a += 1</a><a style=""""></a></div></div>","10","10","1","60","while a >= 4:
   a -= 5
   a += 1","10","1"
"","html-keyboard-response","342","875343","0.0-10.0-8.0-2.0-0.0","1907","<div><div style=""""><a style=""white-space:pre-wrap;""> while a >= 4:
   a -= 5
   a += 1</a><a style=""""></a></div></div>","5","5","1","60","while a >= 4:
   a -= 5
   a += 1","5","2"
"","html-keyboard-response","343","876527","0.0-10.0-8.0-3.0-0.0","673","<div><div style=""""><a style=""white-space:pre-wrap;""> while a >= 4:
   a -= 5
   a += 1</a><a style=""""></a></div></div>","6","6","1","60","while a >= 4:
   a -= 5
   a += 1","6","3"
"","html-keyboard-response","344","878127","0.0-10.0-8.0-4.0-0.0","1087","<div><div style=""""><a style=""white-space:pre-wrap;""> while a >= 4:
   a -= 5
   a += 1</a><a style=""""></a></div></div>","1","1","1","60","while a >= 4:
   a -= 5
   a += 1","1","4"
"","html-keyboard-response","345","878711","0.0-10.0-8.0-5.0-0.0","68","<div><div style=""""><a style=""white-space:pre-wrap;""> while a >= 4:
   a -= 5
   a += 1</a><a style=""""></a></div></div>","2","2","1","60","while a >= 4:
   a -= 5
   a += 1","2","5"
"","html-keyboard-response","346","879527","0.0-10.0-8.0-6.0-0.0","308","<div><div style=""""><a style=""white-space:pre-wrap;""> while a >= 4:
   a -= 5
   a += 1</a><a style=""""></a></div></div>","backspace","backspace","1","60","while a >= 4:
   a -= 5
   a += 1","backspace","6"
"","html-keyboard-response","347","882023","0.0-10.0-9.0-0.0-0.0","1979","<div><div style=""""><a style=""white-space:pre-wrap;""> while a <= 15:
   a *= 3</a><a style=""""></a></div></div>","6","6","1","61","while a <= 15:
   a *= 3","6","0"
"","html-keyboard-response","348","884495","0.0-10.0-9.0-1.0-0.0","1956","<div><div style=""""><a style=""white-space:pre-wrap;""> while a <= 15:
   a *= 3</a><a style=""""></a></div></div>","18","18","1","61","while a <= 15:
   a *= 3","18","1"
"","html-keyboard-response","349","886735","0.0-10.0-9.0-2.0-0.0","1735","<div><div style=""""><a style=""white-space:pre-wrap;""> while a <= 15:
   a *= 3</a><a style=""""></a></div></div>","backspace","backspace","1","61","while a <= 15:
   a *= 3","backspace","2"
"","html-keyboard-response","350","890365","0.0-10.0-10.0-0.0-0.0","3107","<div><div style=""""><a style=""white-space:pre-wrap;""> while a >= 11:
   a /= 3
   a *= 2</a><a style=""""></a></div></div>","6","6","1","62","while a >= 11:
   a /= 3
   a *= 2","6","0"
"","html-keyboard-response","351","891845","0.0-10.0-10.0-1.0-0.0","975","<div><div style=""""><a style=""white-space:pre-wrap;""> while a >= 11:
   a /= 3
   a *= 2</a><a style=""""></a></div></div>","12","12","1","62","while a >= 11:
   a /= 3
   a *= 2","12","1"
"","html-keyboard-response","352","895109","0.0-10.0-10.0-2.0-0.0","2758","<div><div style=""""><a style=""white-space:pre-wrap;""> while a >= 11:
   a /= 3
   a *= 2</a><a style=""""></a></div></div>","4","4","1","62","while a >= 11:
   a /= 3
   a *= 2","4","2"
"","html-keyboard-response","353","895901","0.0-10.0-10.0-3.0-0.0","284","<div><div style=""""><a style=""white-space:pre-wrap;""> while a >= 11:
   a /= 3
   a *= 2</a><a style=""""></a></div></div>","8","8","1","62","while a >= 11:
   a /= 3
   a *= 2","8","3"
"","html-keyboard-response","354","897669","0.0-10.0-10.0-4.0-0.0","1257","<div><div style=""""><a style=""white-space:pre-wrap;""> while a >= 11:
   a /= 3
   a *= 2</a><a style=""""></a></div></div>","backspace","backspace","1","62","while a >= 11:
   a /= 3
   a *= 2","backspace","4"
"","html-keyboard-response","355","899876","0.0-10.0-11.0-0.0-0.0","1705","<div><div style=""""><a style=""white-space:pre-wrap;""> for i in [1, 2, 3]:
   a += 4</a><a style=""""></a></div></div>","12","12","1","63","for i in [1, 2, 3]:
   a += 4","12","0"
"","html-keyboard-response","356","900965","0.0-10.0-11.0-1.0-0.0","579","<div><div style=""""><a style=""white-space:pre-wrap;""> for i in [1, 2, 3]:
   a += 4</a><a style=""""></a></div></div>","16","16","1","63","for i in [1, 2, 3]:
   a += 4","16","1"
"","html-keyboard-response","357","902045","0.0-10.0-11.0-2.0-0.0","575","<div><div style=""""><a style=""white-space:pre-wrap;""> for i in [1, 2, 3]:
   a += 4</a><a style=""""></a></div></div>","20","20","1","63","for i in [1, 2, 3]:
   a += 4","20","2"
"","html-keyboard-response","358","902781","0.0-10.0-11.0-3.0-0.0","219","<div><div style=""""><a style=""white-space:pre-wrap;""> for i in [1, 2, 3]:
   a += 4</a><a style=""""></a></div></div>","backspace","backspace","1","63","for i in [1, 2, 3]:
   a += 4","backspace","3"
"","html-keyboard-response","359","904708","0.0-11.0-1.0","1416","<p style=""font-size: 25px;"">Please press space to start the next program<br>>>>>>></p>"," ","","","","","",""
"","html-keyboard-response","360","905677","0.0-11.0-2.0","967","<div><div style="" font-size:25px; color:green;""><a style=""white-space:pre-wrap;""> a = 9</a><a style=""""></a></div></div>","","null","","100","a = 9","",""
"","html-keyboard-response","361","908101","0.0-11.0-4.0-0.0-0.0","1908","<div><div style=""""><a style=""white-space:pre-wrap;""> for i in [1, 2]:
   a /= 3</a><a style=""""></a></div></div>","3","3","1","101","for i in [1, 2]:
   a /= 3","3","0"
"","html-keyboard-response","362","908677","0.0-11.0-4.0-1.0-0.0","67","<div><div style=""""><a style=""white-space:pre-wrap;""> for i in [1, 2]:
   a /= 3</a><a style=""""></a></div></div>","1","1","1","101","for i in [1, 2]:
   a /= 3","1","1"
"","html-keyboard-response","363","909308","0.0-11.0-4.0-2.0-0.0","120","<div><div style=""""><a style=""white-space:pre-wrap;""> for i in [1, 2]:
   a /= 3</a><a style=""""></a></div></div>","backspace","backspace","1","101","for i in [1, 2]:
   a /= 3","backspace","2"
"","html-keyboard-response","364","912917","0.0-11.0-5.0-0.0-0.0","3093","<div><div style=""""><a style=""white-space:pre-wrap;""> for i in [1, 2, 3]:
   a += 6</a><a style=""""></a></div></div>","7","7","1","102","for i in [1, 2, 3]:
   a += 6","7","0"
"","html-keyboard-response","365","914532","0.0-11.0-5.0-1.0-0.0","1104","<div><div style=""""><a style=""white-space:pre-wrap;""> for i in [1, 2, 3]:
   a += 6</a><a style=""""></a></div></div>","13","13","1","102","for i in [1, 2, 3]:
   a += 6","13","1"
"","html-keyboard-response","366","915093","0.0-11.0-5.0-2.0-0.0","56","<div><div style=""""><a style=""white-space:pre-wrap;""> for i in [1, 2, 3]:
   a += 6</a><a style=""""></a></div></div>","19","19","1","102","for i in [1, 2, 3]:
   a += 6","19","2"
"","html-keyboard-response","367","915701","0.0-11.0-5.0-3.0-0.0","103","<div><div style=""""><a style=""white-space:pre-wrap;""> for i in [1, 2, 3]:
   a += 6</a><a style=""""></a></div></div>","backspace","backspace","1","102","for i in [1, 2, 3]:
   a += 6","backspace","3"
"","html-keyboard-response","368","918668","0.0-11.0-6.0-0.0-0.0","2460","<div><div style=""""><a style=""white-space:pre-wrap;""> while a >= 10:
   a += 1
   a -= 8</a><a style=""""></a></div></div>","20","20","1","103","while a >= 10:
   a += 1
   a -= 8","20","0"
"","html-keyboard-response","369","919277","0.0-11.0-6.0-1.0-0.0","103","<div><div style=""""><a style=""white-space:pre-wrap;""> while a >= 10:
   a += 1
   a -= 8</a><a style=""""></a></div></div>","12","12","1","103","while a >= 10:
   a += 1
   a -= 8","12","1"
"","html-keyboard-response","370","923341","0.0-11.0-6.0-2.0-0.0","3561","<div><div style=""""><a style=""white-space:pre-wrap;""> while a >= 10:
   a += 1
   a -= 8</a><a style=""""></a></div></div>","13","13","1","103","while a >= 10:
   a += 1
   a -= 8","13","2"
"","html-keyboard-response","371","923996","0.0-11.0-6.0-3.0-0.0","149","<div><div style=""""><a style=""white-space:pre-wrap;""> while a >= 10:
   a += 1
   a -= 8</a><a style=""""></a></div></div>","5","5","1","103","while a >= 10:
   a += 1
   a -= 8","5","3"
"","html-keyboard-response","372","926173","0.0-11.0-6.0-4.0-0.0","1670","<div><div style=""""><a style=""white-space:pre-wrap;""> while a >= 10:
   a += 1
   a -= 8</a><a style=""""></a></div></div>","backspace","backspace","1","103","while a >= 10:
   a += 1
   a -= 8","backspace","4"
"","html-keyboard-response","373","929117","0.0-11.0-7.0-0.0-0.0","2433","<div><div style=""""><a style=""white-space:pre-wrap;""> while a <= 6:
   a *= 3
   a -= 9</a><a style=""""></a></div></div>","15","15","1","104","while a <= 6:
   a *= 3
   a -= 9","15","0"
"","html-keyboard-response","374","930651","0.0-11.0-7.0-1.0-0.0","1031","<div><div style=""""><a style=""white-space:pre-wrap;""> while a <= 6:
   a *= 3
   a -= 9</a><a style=""""></a></div></div>","6","6","1","104","while a <= 6:
   a *= 3
   a -= 9","6","1"
"","html-keyboard-response","375","932445","0.0-11.0-7.0-2.0-0.0","1280","<div><div style=""""><a style=""white-space:pre-wrap;""> while a <= 6:
   a *= 3
   a -= 9</a><a style=""""></a></div></div>","18","18","1","104","while a <= 6:
   a *= 3
   a -= 9","18","2"
"","html-keyboard-response","376","933317","0.0-11.0-7.0-3.0-0.0","366","<div><div style=""""><a style=""white-space:pre-wrap;""> while a <= 6:
   a *= 3
   a -= 9</a><a style=""""></a></div></div>","9","9","1","104","while a <= 6:
   a *= 3
   a -= 9","9","3"
"","html-keyboard-response","377","933980","0.0-11.0-7.0-4.0-0.0","156","<div><div style=""""><a style=""white-space:pre-wrap;""> while a <= 6:
   a *= 3
   a -= 9</a><a style=""""></a></div></div>","backspace","backspace","1","104","while a <= 6:
   a *= 3
   a -= 9","backspace","4"
"","html-keyboard-response","378","937509","0.0-11.0-8.0-0.0-0.0","3014","<div><div style=""""><a style=""white-space:pre-wrap;""> for i in [1, 2, 3]:
   a = average(a, 1)</a><a style=""""></a></div></div>","5","5","1","105","for i in [1, 2, 3]:
   a = average(a, 1)","5","0"
"","html-keyboard-response","379","938493","0.0-11.0-8.0-1.0-0.0","471","<div><div style=""""><a style=""white-space:pre-wrap;""> for i in [1, 2, 3]:
   a = average(a, 1)</a><a style=""""></a></div></div>","3","3","1","105","for i in [1, 2, 3]:
   a = average(a, 1)","3","1"
"","html-keyboard-response","380","939069","0.0-11.0-8.0-2.0-0.0","64","<div><div style=""""><a style=""white-space:pre-wrap;""> for i in [1, 2, 3]:
   a = average(a, 1)</a><a style=""""></a></div></div>","2","2","1","105","for i in [1, 2, 3]:
   a = average(a, 1)","2","2"
