"success","trial_type","trial_index","time_elapsed","internal_node_id","rt","stimulus","response","expected_response","correct","uid","text1","correct_response","loop_step"
"true","fullscreen","0","14794","0.0-0.0","","","","","","","","",""
"","html-keyboard-response","1","16864","0.0-1.0","2068","Please make sure that your keyboard is in English mode. Press 'A' to continue","a","","","","","",""
"","html-keyboard-response","2","18555","0.0-2.0-1.0","1689","<p style=""font-size: 25px;"">Please press space to start the next program<br>>>>>>></p>"," ","","","","","",""
"","html-keyboard-response","3","21711","0.0-2.0-2.0","3155","<div><div style="" font-size:25px; color:green;""><a style=""white-space:pre-wrap;""> a = 9</a><a style=""""></a></div></div>","","null","","91","a = 9","",""
"","html-keyboard-response","4","26117","0.0-2.0-4.0-0.0-0.0","3889","<div><div style=""""><a style=""white-space:pre-wrap;""> for i in [1, 2]:
   a /= 3</a><a style=""""></a></div></div>","3","","1","","","3","0"
"","html-keyboard-response","5","27279","0.0-2.0-4.0-1.0-0.0","653","<div><div style=""""><a style=""white-space:pre-wrap;""> for i in [1, 2]:
   a /= 3</a><a style=""""></a></div></div>","1","","1","","","1","1"
"","html-keyboard-response","6","28646","0.0-2.0-4.0-2.0-0.0","853","<div><div style=""""><a style=""white-space:pre-wrap;""> for i in [1, 2]:
   a /= 3</a><a style=""""></a></div></div>","backspace","","1","","","backspace",""
"","html-keyboard-response","7","31040","0.0-2.0-5.0-0.0-0.0","1883","<div><div style=""""><a style=""white-space:pre-wrap;""> while a <= 16:
   a += 6</a><a style=""""></a></div></div>","7","","1","","","7","0"
"","html-keyboard-response","8","32525","0.0-2.0-5.0-1.0-0.0","971","<div><div style=""""><a style=""white-space:pre-wrap;""> while a <= 16:
   a += 6</a><a style=""""></a></div></div>","13","","1","","","13","1"
"","html-keyboard-response","9","34490","0.0-2.0-5.0-2.0-0.0","1460","<div><div style=""""><a style=""white-space:pre-wrap;""> while a <= 16:
   a += 6</a><a style=""""></a></div></div>","19","","1","","","19","2"
"","html-keyboard-response","10","35696","0.0-2.0-5.0-3.0-0.0","690","<div><div style=""""><a style=""white-space:pre-wrap;""> while a <= 16:
   a += 6</a><a style=""""></a></div></div>","backspace","","1","","","backspace",""
"","html-keyboard-response","11","38718","0.0-2.0-6.0-0.0-0.0","2510","<div><div style=""""><a style=""white-space:pre-wrap;""> while a >= 10:
   a += 1
   a -= 8</a><a style=""""></a></div></div>","20","","1","","","20","0"
"","html-keyboard-response","12","40429","0.0-2.0-6.0-1.0-0.0","1197","<div><div style=""""><a style=""white-space:pre-wrap;""> while a >= 10:
   a += 1
   a -= 8</a><a style=""""></a></div></div>","12","","1","","","12","1"
"","html-keyboard-response","13","41900","0.0-2.0-6.0-2.0-0.0","966","<div><div style=""""><a style=""white-space:pre-wrap;""> while a >= 10:
   a += 1
   a -= 8</a><a style=""""></a></div></div>","13","","1","","","13","2"
"","html-keyboard-response","14","45345","0.0-2.0-6.0-3.0-0.0","2942","<div><div style=""""><a style=""white-space:pre-wrap;""> while a >= 10:
   a += 1
   a -= 8</a><a style=""""></a></div></div>","5","","1","","","5","3"
"","html-keyboard-response","15","46775","0.0-2.0-6.0-4.0-0.0","926","<div><div style=""""><a style=""white-space:pre-wrap;""> while a >= 10:
   a += 1
   a -= 8</a><a style=""""></a></div></div>","backspace","","1","","","backspace",""
"","html-keyboard-response","16","49477","0.0-2.0-7.0-0.0-0.0","2191","<div><div style=""""><a style=""white-space:pre-wrap;""> for i in [1, 2]:
   a *= 3
   a -= 9</a><a style=""""></a></div></div>","15","","1","","","15","0"
"","html-keyboard-response","17","51421","0.0-2.0-7.0-1.0-0.0","1428","<div><div style=""""><a style=""white-space:pre-wrap;""> for i in [1, 2]:
   a *= 3
   a -= 9</a><a style=""""></a></div></div>","6","","1","","","6","1"
"","html-keyboard-response","18","53458","0.0-2.0-7.0-2.0-0.0","1531","<div><div style=""""><a style=""white-space:pre-wrap;""> for i in [1, 2]:
   a *= 3
   a -= 9</a><a style=""""></a></div></div>","18","","1","","","18","2"
"","html-keyboard-response","19","56078","0.0-2.0-7.0-3.0-0.0","2112","<div><div style=""""><a style=""white-space:pre-wrap;""> for i in [1, 2]:
   a *= 3
   a -= 9</a><a style=""""></a></div></div>","9","","1","","","9","3"
"","html-keyboard-response","20","57601","0.0-2.0-7.0-4.0-0.0","1013","<div><div style=""""><a style=""white-space:pre-wrap;""> for i in [1, 2]:
   a *= 3
   a -= 9</a><a style=""""></a></div></div>","backspace","","1","","","backspace",""
"","html-keyboard-response","21","60927","0.0-2.0-8.0-0.0-0.0","2813","<div><div style=""""><a style=""white-space:pre-wrap;""> for i in [1, 2, 3]:
   a = average(a, 1)</a><a style=""""></a></div></div>","5","","1","","","5","0"
"","html-keyboard-response","22","64280","0.0-2.0-8.0-1.0-0.0","2841","<div><div style=""""><a style=""white-space:pre-wrap;""> for i in [1, 2, 3]:
   a = average(a, 1)</a><a style=""""></a></div></div>","3","","1","","","3","1"
"","html-keyboard-response","23","66364","0.0-2.0-8.0-2.0-0.0","1576","<div><div style=""""><a style=""white-space:pre-wrap;""> for i in [1, 2, 3]:
   a = average(a, 1)</a><a style=""""></a></div></div>","2","","1","","","2","2"
"","html-keyboard-response","24","67410","0.0-2.0-8.0-3.0-0.0","542","<div><div style=""""><a style=""white-space:pre-wrap;""> for i in [1, 2, 3]:
   a = average(a, 1)</a><a style=""""></a></div></div>","backspace","","1","","","backspace",""
"","html-keyboard-response","25","70621","0.0-2.0-9.0-0.0-0.0","2697","<div><div style=""""><a style=""white-space:pre-wrap;""> for i in [1, 2]:
   a -= 1
   a *= 5</a><a style=""""></a></div></div>","1","","1","","","1","0"
"","html-keyboard-response","26","72341","0.0-2.0-9.0-1.0-0.0","1204","<div><div style=""""><a style=""white-space:pre-wrap;""> for i in [1, 2]:
   a -= 1
   a *= 5</a><a style=""""></a></div></div>","5","","1","","","5","1"
"","html-keyboard-response","27","74323","0.0-2.0-9.0-2.0-0.0","1476","<div><div style=""""><a style=""white-space:pre-wrap;""> for i in [1, 2]:
   a -= 1
   a *= 5</a><a style=""""></a></div></div>","4","","1","","","4","2"
"","html-keyboard-response","28","75431","0.0-2.0-9.0-3.0-0.0","605","<div><div style=""""><a style=""white-space:pre-wrap;""> for i in [1, 2]:
   a -= 1
   a *= 5</a><a style=""""></a></div></div>","20","","1","","","20","3"
"","html-keyboard-response","29","76896","0.0-2.0-9.0-4.0-0.0","950","<div><div style=""""><a style=""white-space:pre-wrap;""> for i in [1, 2]:
   a -= 1
   a *= 5</a><a style=""""></a></div></div>","backspace","","1","","","backspace",""
"","html-keyboard-response","30","80337","0.0-2.0-10.0-0.0-0.0","2937","<div><div style=""""><a style=""white-space:pre-wrap;""> while a >= 12:
   a -= 3</a><a style=""""></a></div></div>","17","","1","","","17","0"
"","html-keyboard-response","31","81828","0.0-2.0-10.0-1.0-0.0","984","<div><div style=""""><a style=""white-space:pre-wrap;""> while a >= 12:
   a -= 3</a><a style=""""></a></div></div>","14","","1","","","14","1"
"","html-keyboard-response","32","83076","0.0-2.0-10.0-2.0-0.0","742","<div><div style=""""><a style=""white-space:pre-wrap;""> while a >= 12:
   a -= 3</a><a style=""""></a></div></div>","11","","1","","","11","2"
"","html-keyboard-response","33","83952","0.0-2.0-10.0-3.0-0.0","368","<div><div style=""""><a style=""white-space:pre-wrap;""> while a >= 12:
   a -= 3</a><a style=""""></a></div></div>","backspace","","1","","","backspace",""
"","html-keyboard-response","34","88564","0.0-2.0-11.0-0.0-0.0","4109","<div><div style=""""><a style=""white-space:pre-wrap;""> while a >= 5:
   a -= 5</a><a style=""""></a></div></div>","6","","1","","","6","0"
"","html-keyboard-response","35","90398","0.0-2.0-11.0-1.0-0.0","1325","<div><div style=""""><a style=""white-space:pre-wrap;""> while a >= 5:
   a -= 5</a><a style=""""></a></div></div>","1","","1","","","1","1"
"","html-keyboard-response","36","91308","0.0-2.0-11.0-2.0-0.0","405","<div><div style=""""><a style=""white-space:pre-wrap;""> while a >= 5:
   a -= 5</a><a style=""""></a></div></div>","backspace","","1","","","backspace",""
"","html-keyboard-response","37","100106","0.0-3.0-1.0","8284","<p style=""font-size: 25px;"">Please press space to start the next program<br>>>>>>></p>"," ","","","","","",""
"","html-keyboard-response","38","103087","0.0-3.0-2.0","2979","<div><div style="" font-size:25px; color:green;""><a style=""white-space:pre-wrap;""> a = 18</a><a style=""""></a></div></div>","","null","","19","a = 18","",""
"","html-keyboard-response","39","106077","0.0-3.0-4.0-0.0-0.0","2474","<div><div style=""""><a style=""white-space:pre-wrap;""> for i in [1, 2]:
   a /= 3
   a *= 2</a><a style=""""></a></div></div>","6","","1","","","6","0"
"","html-keyboard-response","40","107572","0.0-3.0-4.0-1.0-0.0","993","<div><div style=""""><a style=""white-space:pre-wrap;""> for i in [1, 2]:
   a /= 3
   a *= 2</a><a style=""""></a></div></div>","12","","1","","","12","1"
"","html-keyboard-response","41","109176","0.0-3.0-4.0-2.0-0.0","1095","<div><div style=""""><a style=""white-space:pre-wrap;""> for i in [1, 2]:
   a /= 3
   a *= 2</a><a style=""""></a></div></div>","4","","1","","","4","2"
"","html-keyboard-response","42","110344","0.0-3.0-4.0-3.0-0.0","659","<div><div style=""""><a style=""white-space:pre-wrap;""> for i in [1, 2]:
   a /= 3
   a *= 2</a><a style=""""></a></div></div>","8","","1","","","8","3"
"","html-keyboard-response","43","111298","0.0-3.0-4.0-4.0-0.0","437","<div><div style=""""><a style=""white-space:pre-wrap;""> for i in [1, 2]:
   a /= 3
   a *= 2</a><a style=""""></a></div></div>","backspace","","1","","","backspace",""
"","html-keyboard-response","44","115135","0.0-3.0-5.0-0.0-0.0","3326","<div><div style=""""><a style=""white-space:pre-wrap;""> for i in [1, 2, 3]:
   a /= 2</a><a style=""""></a></div></div>","4","","1","","","4","0"
"","html-keyboard-response","45","116050","0.0-3.0-5.0-1.0-0.0","404","<div><div style=""""><a style=""white-space:pre-wrap;""> for i in [1, 2, 3]:
   a /= 2</a><a style=""""></a></div></div>","2","","1","","","2","1"
"","html-keyboard-response","46","117020","0.0-3.0-5.0-2.0-0.0","455","<div><div style=""""><a style=""white-space:pre-wrap;""> for i in [1, 2, 3]:
   a /= 2</a><a style=""""></a></div></div>","1","","1","","","1","2"
"","html-keyboard-response","47","117969","0.0-3.0-5.0-3.0-0.0","433","<div><div style=""""><a style=""white-space:pre-wrap;""> for i in [1, 2, 3]:
   a /= 2</a><a style=""""></a></div></div>","backspace","","1","","","backspace",""
"","html-keyboard-response","48","120480","0.0-3.0-6.0-0.0-0.0","1994","<div><div style=""""><a style=""white-space:pre-wrap;""> while a <= 7:
   a += 2</a><a style=""""></a></div></div>","3","","1","","","3","0"
"","html-keyboard-response","49","121616","0.0-3.0-6.0-1.0-0.0","632","<div><div style=""""><a style=""white-space:pre-wrap;""> while a <= 7:
   a += 2</a><a style=""""></a></div></div>","5","","1","","","5","1"
"","html-keyboard-response","50","123448","0.0-3.0-6.0-2.0-0.0","1327","<div><div style=""""><a style=""white-space:pre-wrap;""> while a <= 7:
   a += 2</a><a style=""""></a></div></div>","7","","1","","","7","2"
"","html-keyboard-response","51","125290","0.0-3.0-6.0-3.0-0.0","1336","<div><div style=""""><a style=""white-space:pre-wrap;""> while a <= 7:
   a += 2</a><a style=""""></a></div></div>","9","","1","","","9","3"
"","html-keyboard-response","52","126457","0.0-3.0-6.0-4.0-0.0","653","<div><div style=""""><a style=""white-space:pre-wrap;""> while a <= 7:
   a += 2</a><a style=""""></a></div></div>","backspace","","1","","","backspace",""
"","html-keyboard-response","53","129227","0.0-3.0-7.0-0.0-0.0","2254","<div><div style=""""><a style=""white-space:pre-wrap;""> for i in [1, 2]:
   a += 9
   a /= 3</a><a style=""""></a></div></div>","18","","1","","","18","0"
"","html-keyboard-response","54","130554","0.0-3.0-7.0-1.0-0.0","819","<div><div style=""""><a style=""white-space:pre-wrap;""> for i in [1, 2]:
   a += 9
   a /= 3</a><a style=""""></a></div></div>","6","","1","","","6","1"
"","html-keyboard-response","55","132620","0.0-3.0-7.0-2.0-0.0","1555","<div><div style=""""><a style=""white-space:pre-wrap;""> for i in [1, 2]:
   a += 9
   a /= 3</a><a style=""""></a></div></div>","15","","1","","","15","2"
"","html-keyboard-response","56","133648","0.0-3.0-7.0-3.0-0.0","517","<div><div style=""""><a style=""white-space:pre-wrap;""> for i in [1, 2]:
   a += 9
   a /= 3</a><a style=""""></a></div></div>","5","","1","","","5","3"
"","html-keyboard-response","57","134691","0.0-3.0-7.0-4.0-0.0","537","<div><div style=""""><a style=""white-space:pre-wrap;""> for i in [1, 2]:
   a += 9
   a /= 3</a><a style=""""></a></div></div>","backspace","","1","","","backspace",""
"","html-keyboard-response","58","140777","0.0-3.0-8.0-0.0-0.0","5583","<div><div style=""""><a style=""white-space:pre-wrap;""> while a <= 11:
   a = round_down(a*1.5)</a><a style=""""></a></div></div>","7","","1","","","7","0"
"","html-keyboard-response","59","146121","0.0-3.0-8.0-1.0-0.0","4829","<div><div style=""""><a style=""white-space:pre-wrap;""> while a <= 11:
   a = round_down(a*1.5)</a><a style=""""></a></div></div>","10","","1","","","10","1"
"","html-keyboard-response","60","149316","0.0-3.0-8.0-2.0-0.0","2686","<div><div style=""""><a style=""white-space:pre-wrap;""> while a <= 11:
   a = round_down(a*1.5)</a><a style=""""></a></div></div>","15","","1","","","15","2"
"","html-keyboard-response","61","150408","0.0-3.0-8.0-3.0-0.0","584","<div><div style=""""><a style=""white-space:pre-wrap;""> while a <= 11:
   a = round_down(a*1.5)</a><a style=""""></a></div></div>","backspace","","1","","","backspace",""
"","html-keyboard-response","62","154785","0.0-3.0-9.0-0.0-0.0","3872","<div><div style=""""><a style=""white-space:pre-wrap;""> while a >= 8:
   a = average(a,3)</a><a style=""""></a></div></div>","9","","1","","","9","0"
"","html-keyboard-response","63","157466","0.0-3.0-9.0-1.0-0.0","2177","<div><div style=""""><a style=""white-space:pre-wrap;""> while a >= 8:
   a = average(a,3)</a><a style=""""></a></div></div>","6","","1","","","6","1"
"","html-keyboard-response","64","158385","0.0-3.0-9.0-2.0-0.0","405","<div><div style=""""><a style=""white-space:pre-wrap;""> while a >= 8:
   a = average(a,3)</a><a style=""""></a></div></div>","backspace","","1","","","backspace",""
"","html-keyboard-response","65","161982","0.0-3.0-10.0-0.0-0.0","3088","<div><div style=""""><a style=""white-space:pre-wrap;""> for i in [1, 2, 3]:
   a *= 2
   a -= 5</a><a style=""""></a></div></div>","12","","1","","","12","0"
"","html-keyboard-response","66","163055","0.0-3.0-10.0-1.0-0.0","571","<div><div style=""""><a style=""white-space:pre-wrap;""> for i in [1, 2, 3]:
   a *= 2
   a -= 5</a><a style=""""></a></div></div>","7","","1","","","7","1"
"","html-keyboard-response","67","164453","0.0-3.0-10.0-2.0-0.0","887","<div><div style=""""><a style=""white-space:pre-wrap;""> for i in [1, 2, 3]:
   a *= 2
   a -= 5</a><a style=""""></a></div></div>","14","","1","","","14","2"
"","html-keyboard-response","68","165804","0.0-3.0-10.0-3.0-0.0","848","<div><div style=""""><a style=""white-space:pre-wrap;""> for i in [1, 2, 3]:
   a *= 2
   a -= 5</a><a style=""""></a></div></div>","9","","1","","","9","3"
"","html-keyboard-response","69","168539","0.0-3.0-10.0-4.0-0.0","2227","<div><div style=""""><a style=""white-space:pre-wrap;""> for i in [1, 2, 3]:
   a *= 2
   a -= 5</a><a style=""""></a></div></div>","18","","1","","","18","4"
"","html-keyboard-response","70","169993","0.0-3.0-10.0-5.0-0.0","948","<div><div style=""""><a style=""white-space:pre-wrap;""> for i in [1, 2, 3]:
   a *= 2
   a -= 5</a><a style=""""></a></div></div>","13","","1","","","13","5"
"","html-keyboard-response","71","170839","0.0-3.0-10.0-6.0-0.0","340","<div><div style=""""><a style=""white-space:pre-wrap;""> for i in [1, 2, 3]:
   a *= 2
   a -= 5</a><a style=""""></a></div></div>","backspace","","1","","","backspace",""
"","html-keyboard-response","72","173767","0.0-3.0-11.0-0.0-0.0","2413","<div><div style=""""><a style=""white-space:pre-wrap;""> for i in [1, 2, 3]:
   a += 4
   a -= 7</a><a style=""""></a></div></div>","17","","1","","","17","0"
"","html-keyboard-response","73","175118","0.0-3.0-11.0-1.0-0.0","838","<div><div style=""""><a style=""white-space:pre-wrap;""> for i in [1, 2, 3]:
   a += 4
   a -= 7</a><a style=""""></a></div></div>","10","","1","","","10","1"
"","html-keyboard-response","74","176782","0.0-3.0-11.0-2.0-0.0","1151","<div><div style=""""><a style=""white-space:pre-wrap;""> for i in [1, 2, 3]:
   a += 4
   a -= 7</a><a style=""""></a></div></div>","14","","1","","","14","2"
"","html-keyboard-response","75","177651","0.0-3.0-11.0-3.0-0.0","360","<div><div style=""""><a style=""white-space:pre-wrap;""> for i in [1, 2, 3]:
   a += 4
   a -= 7</a><a style=""""></a></div></div>","7","","1","","","7","3"
"","html-keyboard-response","76","179957","0.0-3.0-11.0-4.0-0.0","1802","<div><div style=""""><a style=""white-space:pre-wrap;""> for i in [1, 2, 3]:
   a += 4
   a -= 7</a><a style=""""></a></div></div>","11","","1","","","11","4"
"","html-keyboard-response","77","181413","0.0-3.0-11.0-5.0-0.0","947","<div><div style=""""><a style=""white-space:pre-wrap;""> for i in [1, 2, 3]:
   a += 4
   a -= 7</a><a style=""""></a></div></div>","4","","1","","","4","5"
"","html-keyboard-response","78","182445","0.0-3.0-11.0-6.0-0.0","517","<div><div style=""""><a style=""white-space:pre-wrap;""> for i in [1, 2, 3]:
   a += 4
   a -= 7</a><a style=""""></a></div></div>","backspace","","1","","","backspace",""
"","html-keyboard-response","79","184407","0.0-4.0-1.0","1453","<p style=""font-size: 25px;"">Please press space to start the next program<br>>>>>>></p>"," ","","","","","",""
"","html-keyboard-response","80","186534","0.0-4.0-2.0","2126","<div><div style="" font-size:25px; color:green;""><a style=""white-space:pre-wrap;""> a = 16</a><a style=""""></a></div></div>","","null","","73","a = 16","",""
"","html-keyboard-response","81","191053","0.0-4.0-4.0-0.0-0.0","4015","<div><div style=""""><a style=""white-space:pre-wrap;""> while a >= 6:
   a /= 2</a><a style=""""></a></div></div>","8","","1","","","8","0"
"","html-keyboard-response","82","192777","0.0-4.0-4.0-1.0-0.0","1207","<div><div style=""""><a style=""white-space:pre-wrap;""> while a >= 6:
   a /= 2</a><a style=""""></a></div></div>","4","","1","","","4","1"
"","html-keyboard-response","83","193681","0.0-4.0-4.0-2.0-0.0","396","<div><div style=""""><a style=""white-space:pre-wrap;""> while a >= 6:
   a /= 2</a><a style=""""></a></div></div>","backspace","","1","","","backspace",""
"","html-keyboard-response","84","196994","0.0-4.0-5.0-0.0-0.0","2807","<div><div style=""""><a style=""white-space:pre-wrap;""> for i in [1, 2, 3]:
   a = round_up(a*1.5)</a><a style=""""></a></div></div>","6","","1","","","6","0"
"","html-keyboard-response","85","198255","0.0-4.0-5.0-1.0-0.0","752","<div><div style=""""><a style=""white-space:pre-wrap;""> for i in [1, 2, 3]:
   a = round_up(a*1.5)</a><a style=""""></a></div></div>","9","","1","","","9","1"
"","html-keyboard-response","86","200640","0.0-4.0-5.0-2.0-0.0","1875","<div><div style=""""><a style=""white-space:pre-wrap;""> for i in [1, 2, 3]:
   a = round_up(a*1.5)</a><a style=""""></a></div></div>","14","","1","","","14","2"
"","html-keyboard-response","87","201724","0.0-4.0-5.0-3.0-0.0","570","<div><div style=""""><a style=""white-space:pre-wrap;""> for i in [1, 2, 3]:
   a = round_up(a*1.5)</a><a style=""""></a></div></div>","backspace","","1","","","backspace",""
"","html-keyboard-response","88","204463","0.0-4.0-6.0-0.0-0.0","2233","<div><div style=""""><a style=""white-space:pre-wrap;""> for i in [1, 2]:
   a += 5
   a -= 6</a><a style=""""></a></div></div>","19","","1","","","19","0"
"","html-keyboard-response","89","207941","0.0-4.0-6.0-1.0-0.0","2972","<div><div style=""""><a style=""white-space:pre-wrap;""> for i in [1, 2]:
   a += 5
   a -= 6</a><a style=""""></a></div></div>","13","","1","","","13","1"
"","html-keyboard-response","90","210223","0.0-4.0-6.0-2.0-0.0","1777","<div><div style=""""><a style=""white-space:pre-wrap;""> for i in [1, 2]:
   a += 5
   a -= 6</a><a style=""""></a></div></div>","18","","1","","","18","2"
"","html-keyboard-response","91","211531","0.0-4.0-6.0-3.0-0.0","797","<div><div style=""""><a style=""white-space:pre-wrap;""> for i in [1, 2]:
   a += 5
   a -= 6</a><a style=""""></a></div></div>","12","","1","","","12","3"
"","html-keyboard-response","92","212494","0.0-4.0-6.0-4.0-0.0","448","<div><div style=""""><a style=""white-space:pre-wrap;""> for i in [1, 2]:
   a += 5
   a -= 6</a><a style=""""></a></div></div>","backspace","","1","","","backspace",""
"","html-keyboard-response","93","218439","0.0-4.0-7.0-0.0-0.0","5432","<div><div style=""""><a style=""white-space:pre-wrap;""> while a >= 6:
   a = average(a,4)</a><a style=""""></a></div></div>","8","","1","","","8","0"
"","html-keyboard-response","94","223170","0.0-4.0-7.0-1.0-0.0","4214","<div><div style=""""><a style=""white-space:pre-wrap;""> while a >= 6:
   a = average(a,4)</a><a style=""""></a></div></div>","6","","1","","","6","1"
"","html-keyboard-response","95","225569","0.0-4.0-7.0-2.0-0.0","1896","<div><div style=""""><a style=""white-space:pre-wrap;""> while a >= 6:
   a = average(a,4)</a><a style=""""></a></div></div>","5","","1","","","5","2"
"","html-keyboard-response","96","226569","0.0-4.0-7.0-3.0-0.0","496","<div><div style=""""><a style=""white-space:pre-wrap;""> while a >= 6:
   a = average(a,4)</a><a style=""""></a></div></div>","backspace","","1","","","backspace",""
"","html-keyboard-response","97","229577","0.0-4.0-8.0-0.0-0.0","2495","<div><div style=""""><a style=""white-space:pre-wrap;""> while a >= 3:
   a *= 3
   a -= 11</a><a style=""""></a></div></div>","15","","1","","","15","0"
"","html-keyboard-response","98","231341","0.0-4.0-8.0-1.0-0.0","1256","<div><div style=""""><a style=""white-space:pre-wrap;""> while a >= 3:
   a *= 3
   a -= 11</a><a style=""""></a></div></div>","4","","1","","","4","1"
"","html-keyboard-response","99","234719","0.0-4.0-8.0-2.0-0.0","2865","<div><div style=""""><a style=""white-space:pre-wrap;""> while a >= 3:
   a *= 3
   a -= 11</a><a style=""""></a></div></div>","12","","1","","","12","2"
"","html-keyboard-response","100","235703","0.0-4.0-8.0-3.0-0.0","478","<div><div style=""""><a style=""white-space:pre-wrap;""> while a >= 3:
   a *= 3
   a -= 11</a><a style=""""></a></div></div>","1","","1","","","1","3"
"","html-keyboard-response","101","236967","0.0-4.0-8.0-4.0-0.0","749","<div><div style=""""><a style=""white-space:pre-wrap;""> while a >= 3:
   a *= 3
   a -= 11</a><a style=""""></a></div></div>","backspace","","1","","","backspace",""
"","html-keyboard-response","102","240923","0.0-4.0-9.0-0.0-0.0","3442","<div><div style=""""><a style=""white-space:pre-wrap;""> while a <= 7:
   a *= 6
   a /= 2</a><a style=""""></a></div></div>","6","","1","","","6","0"
"","html-keyboard-response","103","241862","0.0-4.0-9.0-1.0-0.0","424","<div><div style=""""><a style=""white-space:pre-wrap;""> while a <= 7:
   a *= 6
   a /= 2</a><a style=""""></a></div></div>","3","","1","","","3","1"
"","html-keyboard-response","104","243840","0.0-4.0-9.0-2.0-0.0","1474","<div><div style=""""><a style=""white-space:pre-wrap;""> while a <= 7:
   a *= 6
   a /= 2</a><a style=""""></a></div></div>","18","","1","","","18","2"
"","html-keyboard-response","105","245074","0.0-4.0-9.0-3.0-0.0","719","<div><div style=""""><a style=""white-space:pre-wrap;""> while a <= 7:
   a *= 6
   a /= 2</a><a style=""""></a></div></div>","9","","1","","","9","3"
"","html-keyboard-response","106","246370","0.0-4.0-9.0-4.0-0.0","787","<div><div style=""""><a style=""white-space:pre-wrap;""> while a <= 7:
   a *= 6
   a /= 2</a><a style=""""></a></div></div>","backspace","","1","","","backspace",""
"","html-keyboard-response","107","249409","0.0-4.0-10.0-0.0-0.0","2530","<div><div style=""""><a style=""white-space:pre-wrap;""> for i in [1, 2]:
   a -= 2</a><a style=""""></a></div></div>","7","","1","","","7","0"
"","html-keyboard-response","108","251070","0.0-4.0-10.0-1.0-0.0","1153","<div><div style=""""><a style=""white-space:pre-wrap;""> for i in [1, 2]:
   a -= 2</a><a style=""""></a></div></div>","5","","1","","","5","1"
"","html-keyboard-response","109","253117","0.0-4.0-10.0-2.0-0.0","1530","<div><div style=""""><a style=""white-space:pre-wrap;""> for i in [1, 2]:
   a -= 2</a><a style=""""></a></div></div>","backspace","","1","","","backspace",""
"","html-keyboard-response","110","256836","0.0-4.0-11.0-0.0-0.0","3209","<div><div style=""""><a style=""white-space:pre-wrap;""> for i in [1, 2]:
   a += 9
   a /= 2</a><a style=""""></a></div></div>","14","","1","","","14","0"
"","html-keyboard-response","111","257933","0.0-4.0-11.0-1.0-0.0","582","<div><div style=""""><a style=""white-space:pre-wrap;""> for i in [1, 2]:
   a += 9
   a /= 2</a><a style=""""></a></div></div>","7","","1","","","7","1"
"","html-keyboard-response","112","259588","0.0-4.0-11.0-2.0-0.0","1146","<div><div style=""""><a style=""white-space:pre-wrap;""> for i in [1, 2]:
   a += 9
   a /= 2</a><a style=""""></a></div></div>","16","","1","","","16","2"
"","html-keyboard-response","113","261253","0.0-4.0-11.0-3.0-0.0","1154","<div><div style=""""><a style=""white-space:pre-wrap;""> for i in [1, 2]:
   a += 9
   a /= 2</a><a style=""""></a></div></div>","8","","1","","","8","3"
"","html-keyboard-response","114","262078","0.0-4.0-11.0-4.0-0.0","312","<div><div style=""""><a style=""white-space:pre-wrap;""> for i in [1, 2]:
   a += 9
   a /= 2</a><a style=""""></a></div></div>","backspace","","1","","","backspace",""
"","html-keyboard-response","115","263727","0.0-5.0-1.0","1140","<p style=""font-size: 25px;"">Please press space to start the next program<br>>>>>>></p>"," ","","","","","",""
"","html-keyboard-response","116","265714","0.0-5.0-2.0","1985","<div><div style="" font-size:25px; color:green;""><a style=""white-space:pre-wrap;""> a = 11</a><a style=""""></a></div></div>","","null","","64","a = 11","",""
"","html-keyboard-response","117","269322","0.0-5.0-4.0-0.0-0.0","3097","<div><div style=""""><a style=""white-space:pre-wrap;""> while a >= 5:
   a += 4
   a /= 3</a><a style=""""></a></div></div>","15","","1","","","15","0"
"","html-keyboard-response","118","270803","0.0-5.0-4.0-1.0-0.0","964","<div><div style=""""><a style=""white-space:pre-wrap;""> while a >= 5:
   a += 4
   a /= 3</a><a style=""""></a></div></div>","5","","1","","","5","1"
"","html-keyboard-response","119","273038","0.0-5.0-4.0-2.0-0.0","1730","<div><div style=""""><a style=""white-space:pre-wrap;""> while a >= 5:
   a += 4
   a /= 3</a><a style=""""></a></div></div>","9","","1","","","9","2"
"","html-keyboard-response","120","274091","0.0-5.0-4.0-3.0-0.0","543","<div><div style=""""><a style=""white-space:pre-wrap;""> while a >= 5:
   a += 4
   a /= 3</a><a style=""""></a></div></div>","3","","1","","","3","3"
"","html-keyboard-response","121","275463","0.0-5.0-4.0-4.0-0.0","865","<div><div style=""""><a style=""white-space:pre-wrap;""> while a >= 5:
   a += 4
   a /= 3</a><a style=""""></a></div></div>","backspace","","1","","","backspace",""
"","html-keyboard-response","122","281027","0.0-5.0-5.0-0.0-0.0","5056","<div><div style=""""><a style=""white-space:pre-wrap;""> while a <= 11:
   a = round_down(a*2.5)</a><a style=""""></a></div></div>","7","","1","","","7","0"
"","html-keyboard-response","123","290391","0.0-5.0-5.0-1.0-0.0","8857","<div><div style=""""><a style=""white-space:pre-wrap;""> while a <= 11:
   a = round_down(a*2.5)</a><a style=""""></a></div></div>","17","","1","","","17","1"
"","html-keyboard-response","124","292924","0.0-5.0-5.0-2.0-0.0","2023","<div><div style=""""><a style=""white-space:pre-wrap;""> while a <= 11:
   a = round_down(a*2.5)</a><a style=""""></a></div></div>","backspace","","1","","","backspace",""
"","html-keyboard-response","125","296065","0.0-5.0-6.0-0.0-0.0","2624","<div><div style=""""><a style=""white-space:pre-wrap;""> for i in [1, 2, 3, 4]:
   a = average(a,1)</a><a style=""""></a></div></div>","9","","1","","","9","0"
"","html-keyboard-response","126","302987","0.0-5.0-6.0-1.0-0.0","6408","<div><div style=""""><a style=""white-space:pre-wrap;""> for i in [1, 2, 3, 4]:
   a = average(a,1)</a><a style=""""></a></div></div>","5","","1","","","5","1"
"","html-keyboard-response","127","304914","0.0-5.0-6.0-2.0-0.0","1412","<div><div style=""""><a style=""white-space:pre-wrap;""> for i in [1, 2, 3, 4]:
   a = average(a,1)</a><a style=""""></a></div></div>","3","","1","","","3","2"
"","html-keyboard-response","128","306092","0.0-5.0-6.0-3.0-0.0","663","<div><div style=""""><a style=""white-space:pre-wrap;""> for i in [1, 2, 3, 4]:
   a = average(a,1)</a><a style=""""></a></div></div>","2","","1","","","2","3"
"","html-keyboard-response","129","306960","0.0-5.0-6.0-4.0-0.0","363","<div><div style=""""><a style=""white-space:pre-wrap;""> for i in [1, 2, 3, 4]:
   a = average(a,1)</a><a style=""""></a></div></div>","backspace","","1","","","backspace",""
"","html-keyboard-response","130","309428","0.0-5.0-7.0-0.0-0.0","1964","<div><div style=""""><a style=""white-space:pre-wrap;""> while a <= 10:
   a *= 3
   a -= 1</a><a style=""""></a></div></div>","6","","1","","","6","0"
"","html-keyboard-response","131","310400","0.0-5.0-7.0-1.0-0.0","463","<div><div style=""""><a style=""white-space:pre-wrap;""> while a <= 10:
   a *= 3
   a -= 1</a><a style=""""></a></div></div>","5","","1","","","5","1"
"","html-keyboard-response","132","312404","0.0-5.0-7.0-2.0-0.0","1500","<div><div style=""""><a style=""white-space:pre-wrap;""> while a <= 10:
   a *= 3
   a -= 1</a><a style=""""></a></div></div>","15","","1","","","15","2"
"","html-keyboard-response","133","313494","0.0-5.0-7.0-3.0-0.0","577","<div><div style=""""><a style=""white-space:pre-wrap;""> while a <= 10:
   a *= 3
   a -= 1</a><a style=""""></a></div></div>","14","","1","","","14","3"
"","html-keyboard-response","134","314918","0.0-5.0-7.0-4.0-0.0","913","<div><div style=""""><a style=""white-space:pre-wrap;""> while a <= 10:
   a *= 3
   a -= 1</a><a style=""""></a></div></div>","backspace","","1","","","backspace",""
"","html-keyboard-response","135","317811","0.0-5.0-8.0-0.0-0.0","2387","<div><div style=""""><a style=""white-space:pre-wrap;""> while a >= 4:
   a -= 5
   a += 1</a><a style=""""></a></div></div>","9","","1","","","9","0"
"","html-keyboard-response","136","319462","0.0-5.0-8.0-1.0-0.0","1147","<div><div style=""""><a style=""white-space:pre-wrap;""> while a >= 4:
   a -= 5
   a += 1</a><a style=""""></a></div></div>","10","","1","","","10","1"
"","html-keyboard-response","137","321116","0.0-5.0-8.0-2.0-0.0","1137","<div><div style=""""><a style=""white-space:pre-wrap;""> while a >= 4:
   a -= 5
   a += 1</a><a style=""""></a></div></div>","5","","1","","","5","2"
"","html-keyboard-response","138","322446","0.0-5.0-8.0-3.0-0.0","827","<div><div style=""""><a style=""white-space:pre-wrap;""> while a >= 4:
   a -= 5
   a += 1</a><a style=""""></a></div></div>","6","","1","","","6","3"
"","html-keyboard-response","139","324061","0.0-5.0-8.0-4.0-0.0","1101","<div><div style=""""><a style=""white-space:pre-wrap;""> while a >= 4:
   a -= 5
   a += 1</a><a style=""""></a></div></div>","1","","1","","","1","4"
"","html-keyboard-response","140","325132","0.0-5.0-8.0-5.0-0.0","560","<div><div style=""""><a style=""white-space:pre-wrap;""> while a >= 4:
   a -= 5
   a += 1</a><a style=""""></a></div></div>","2","","1","","","2","5"
"","html-keyboard-response","141","326100","0.0-5.0-8.0-6.0-0.0","457","<div><div style=""""><a style=""white-space:pre-wrap;""> while a >= 4:
   a -= 5
   a += 1</a><a style=""""></a></div></div>","backspace","","1","","","backspace",""
"","html-keyboard-response","142","328710","0.0-5.0-9.0-0.0-0.0","2099","<div><div style=""""><a style=""white-space:pre-wrap;""> for i in [1, 2]:
   a *= 3</a><a style=""""></a></div></div>","6","","1","","","6","0"
"","html-keyboard-response","143","330194","0.0-5.0-9.0-1.0-0.0","969","<div><div style=""""><a style=""white-space:pre-wrap;""> for i in [1, 2]:
   a *= 3</a><a style=""""></a></div></div>","18","","1","","","18","1"
"","html-keyboard-response","144","331256","0.0-5.0-9.0-2.0-0.0","548","<div><div style=""""><a style=""white-space:pre-wrap;""> for i in [1, 2]:
   a *= 3</a><a style=""""></a></div></div>","backspace","","1","","","backspace",""
"","html-keyboard-response","145","334199","0.0-5.0-10.0-0.0-0.0","2434","<div><div style=""""><a style=""white-space:pre-wrap;""> while a >= 11:
   a /= 3
   a *= 2</a><a style=""""></a></div></div>","6","","1","","","6","0"
"","html-keyboard-response","146","335966","0.0-5.0-10.0-1.0-0.0","1262","<div><div style=""""><a style=""white-space:pre-wrap;""> while a >= 11:
   a /= 3
   a *= 2</a><a style=""""></a></div></div>","12","","1","","","12","1"
"","html-keyboard-response","147","338810","0.0-5.0-10.0-2.0-0.0","2329","<div><div style=""""><a style=""white-space:pre-wrap;""> while a >= 11:
   a /= 3
   a *= 2</a><a style=""""></a></div></div>","4","","1","","","4","2"
"","html-keyboard-response","148","340422","0.0-5.0-10.0-3.0-0.0","1104","<div><div style=""""><a style=""white-space:pre-wrap;""> while a >= 11:
   a /= 3
   a *= 2</a><a style=""""></a></div></div>","8","","1","","","8","3"
"","html-keyboard-response","149","341627","0.0-5.0-10.0-4.0-0.0","697","<div><div style=""""><a style=""white-space:pre-wrap;""> while a >= 11:
   a /= 3
   a *= 2</a><a style=""""></a></div></div>","backspace","","1","","","backspace",""
"","html-keyboard-response","150","345035","0.0-5.0-11.0-0.0-0.0","2901","<div><div style=""""><a style=""white-space:pre-wrap;""> while a <= 17:
   a += 4</a><a style=""""></a></div></div>","12","","1","","","12","0"
"","html-keyboard-response","151","346264","0.0-5.0-11.0-1.0-0.0","720","<div><div style=""""><a style=""white-space:pre-wrap;""> while a <= 17:
   a += 4</a><a style=""""></a></div></div>","16","","1","","","16","1"
"","html-keyboard-response","152","347646","0.0-5.0-11.0-2.0-0.0","867","<div><div style=""""><a style=""white-space:pre-wrap;""> while a <= 17:
   a += 4</a><a style=""""></a></div></div>","20","","1","","","20","2"
"","html-keyboard-response","153","348616","0.0-5.0-11.0-3.0-0.0","466","<div><div style=""""><a style=""white-space:pre-wrap;""> while a <= 17:
   a += 4</a><a style=""""></a></div></div>","backspace","","1","","","backspace",""
"","html-keyboard-response","154","492825","0.0-6.0-0.0-0.0","143700","<p style=""position:absolute; top:30%; font-size:25px; color:green;"" >Take a short break now</p>"," ","","","","","",""
"","html-keyboard-response","155","494067","0.0-6.0-1.0","1241","<p style=""font-size: 25px;"">Please press space to start the next program<br>>>>>>></p>"," ","","","","","",""
"","html-keyboard-response","156","495888","0.0-6.0-2.0","1819","<div><div style="" font-size:25px; color:green;""><a style=""white-space:pre-wrap;""> a = 16</a><a style=""""></a></div></div>","","null","","82","a = 16","",""
"","html-keyboard-response","157","499061","0.0-6.0-4.0-0.0-0.0","2660","<div><div style=""""><a style=""white-space:pre-wrap;""> for i in [1, 2]:
   a /= 2</a><a style=""""></a></div></div>","8","","1","","","8","0"
"","html-keyboard-response","158","500055","0.0-6.0-4.0-1.0-0.0","484","<div><div style=""""><a style=""white-space:pre-wrap;""> for i in [1, 2]:
   a /= 2</a><a style=""""></a></div></div>","4","","1","","","4","1"
"","html-keyboard-response","159","501066","0.0-6.0-4.0-2.0-0.0","499","<div><div style=""""><a style=""white-space:pre-wrap;""> for i in [1, 2]:
   a /= 2</a><a style=""""></a></div></div>","backspace","","1","","","backspace",""
"","html-keyboard-response","160","503744","0.0-6.0-5.0-0.0-0.0","2169","<div><div style=""""><a style=""white-space:pre-wrap;""> for i in [1, 2, 3]:
   a = round_up(a*1.5)</a><a style=""""></a></div></div>","6","","1","","","6","0"
"","html-keyboard-response","161","504808","0.0-6.0-5.0-1.0-0.0","552","<div><div style=""""><a style=""white-space:pre-wrap;""> for i in [1, 2, 3]:
   a = round_up(a*1.5)</a><a style=""""></a></div></div>","9","","1","","","9","1"
"","html-keyboard-response","162","507619","0.0-6.0-5.0-2.0-0.0","2297","<div><div style=""""><a style=""white-space:pre-wrap;""> for i in [1, 2, 3]:
   a = round_up(a*1.5)</a><a style=""""></a></div></div>","14","","1","","","14","2"
"","html-keyboard-response","163","508571","0.0-6.0-5.0-3.0-0.0","441","<div><div style=""""><a style=""white-space:pre-wrap;""> for i in [1, 2, 3]:
   a = round_up(a*1.5)</a><a style=""""></a></div></div>","backspace","","1","","","backspace",""
"","html-keyboard-response","164","512684","0.0-6.0-6.0-0.0-0.0","3605","<div><div style=""""><a style=""white-space:pre-wrap;""> while a >= 13:
   a += 5
   a -= 6</a><a style=""""></a></div></div>","19","","1","","","19","0"
"","html-keyboard-response","165","513772","0.0-6.0-6.0-1.0-0.0","574","<div><div style=""""><a style=""white-space:pre-wrap;""> while a >= 13:
   a += 5
   a -= 6</a><a style=""""></a></div></div>","13","","1","","","13","1"
"","html-keyboard-response","166","515841","0.0-6.0-6.0-2.0-0.0","1554","<div><div style=""""><a style=""white-space:pre-wrap;""> while a >= 13:
   a += 5
   a -= 6</a><a style=""""></a></div></div>","18","","1","","","18","2"
"","html-keyboard-response","167","517061","0.0-6.0-6.0-3.0-0.0","715","<div><div style=""""><a style=""white-space:pre-wrap;""> while a >= 13:
   a += 5
   a -= 6</a><a style=""""></a></div></div>","12","","1","","","12","3"
"","html-keyboard-response","168","518151","0.0-6.0-6.0-4.0-0.0","574","<div><div style=""""><a style=""white-space:pre-wrap;""> while a >= 13:
   a += 5
   a -= 6</a><a style=""""></a></div></div>","backspace","","1","","","backspace",""
"","html-keyboard-response","169","523219","0.0-6.0-7.0-0.0-0.0","4565","<div><div style=""""><a style=""white-space:pre-wrap;""> while a >= 6:
   a = average(a,4)</a><a style=""""></a></div></div>","10","","0","","","8","0"
"","html-keyboard-response","171","534572","0.0-6.0-7.0-1.0-0.0","7325","<div><div style=""""><a style=""white-space:pre-wrap;""> while a >= 6:
   a = average(a,4)</a><a style=""""></a></div></div>","6","","1","","","6","1"
"","html-keyboard-response","172","536862","0.0-6.0-7.0-2.0-0.0","1773","<div><div style=""""><a style=""white-space:pre-wrap;""> while a >= 6:
   a = average(a,4)</a><a style=""""></a></div></div>","5","","1","","","5","2"
"","html-keyboard-response","173","538020","0.0-6.0-7.0-3.0-0.0","648","<div><div style=""""><a style=""white-space:pre-wrap;""> while a >= 6:
   a = average(a,4)</a><a style=""""></a></div></div>","backspace","","1","","","backspace",""
"","html-keyboard-response","174","540644","0.0-6.0-8.0-0.0-0.0","2120","<div><div style=""""><a style=""white-space:pre-wrap;""> for i in [1, 2]:
   a *= 3
   a -= 11</a><a style=""""></a></div></div>","15","","1","","","15","0"
"","html-keyboard-response","175","541947","0.0-6.0-8.0-1.0-0.0","798","<div><div style=""""><a style=""white-space:pre-wrap;""> for i in [1, 2]:
   a *= 3
   a -= 11</a><a style=""""></a></div></div>","4","","1","","","4","1"
"","html-keyboard-response","176","543497","0.0-6.0-8.0-2.0-0.0","1038","<div><div style=""""><a style=""white-space:pre-wrap;""> for i in [1, 2]:
   a *= 3
   a -= 11</a><a style=""""></a></div></div>","12","","1","","","12","2"
"","html-keyboard-response","177","544499","0.0-6.0-8.0-3.0-0.0","484","<div><div style=""""><a style=""white-space:pre-wrap;""> for i in [1, 2]:
   a *= 3
   a -= 11</a><a style=""""></a></div></div>","1","","1","","","1","3"
"","html-keyboard-response","178","545427","0.0-6.0-8.0-4.0-0.0","424","<div><div style=""""><a style=""white-space:pre-wrap;""> for i in [1, 2]:
   a *= 3
   a -= 11</a><a style=""""></a></div></div>","backspace","","1","","","backspace",""
"","html-keyboard-response","179","547862","0.0-6.0-9.0-0.0-0.0","1919","<div><div style=""""><a style=""white-space:pre-wrap;""> while a <= 7:
   a *= 6
   a /= 2</a><a style=""""></a></div></div>","6","","1","","","6","0"
"","html-keyboard-response","180","550098","0.0-6.0-9.0-1.0-0.0","1729","<div><div style=""""><a style=""white-space:pre-wrap;""> while a <= 7:
   a *= 6
   a /= 2</a><a style=""""></a></div></div>","3","","1","","","3","1"
"","html-keyboard-response","181","553926","0.0-6.0-9.0-2.0-0.0","3319","<div><div style=""""><a style=""white-space:pre-wrap;""> while a <= 7:
   a *= 6
   a /= 2</a><a style=""""></a></div></div>","18","","1","","","18","2"
"","html-keyboard-response","182","555973","0.0-6.0-9.0-3.0-0.0","1532","<div><div style=""""><a style=""white-space:pre-wrap;""> while a <= 7:
   a *= 6
   a /= 2</a><a style=""""></a></div></div>","9","","1","","","9","3"
"","html-keyboard-response","183","556900","0.0-6.0-9.0-4.0-0.0","422","<div><div style=""""><a style=""white-space:pre-wrap;""> while a <= 7:
   a *= 6
   a /= 2</a><a style=""""></a></div></div>","backspace","","1","","","backspace",""
"","html-keyboard-response","184","560430","0.0-6.0-10.0-0.0-0.0","3016","<div><div style=""""><a style=""white-space:pre-wrap;""> while a >= 7:
   a -= 2</a><a style=""""></a></div></div>","7","","1","","","7","0"
"","html-keyboard-response","185","561470","0.0-6.0-10.0-1.0-0.0","528","<div><div style=""""><a style=""white-space:pre-wrap;""> while a >= 7:
   a -= 2</a><a style=""""></a></div></div>","5","","1","","","5","1"
"","html-keyboard-response","186","562372","0.0-6.0-10.0-2.0-0.0","388","<div><div style=""""><a style=""white-space:pre-wrap;""> while a >= 7:
   a -= 2</a><a style=""""></a></div></div>","backspace","","1","","","backspace",""
"","html-keyboard-response","187","564986","0.0-6.0-11.0-0.0-0.0","2098","<div><div style=""""><a style=""white-space:pre-wrap;""> for i in [1, 2]:
   a += 9
   a /= 2</a><a style=""""></a></div></div>","14","","1","","","14","0"
"","html-keyboard-response","188","566493","0.0-6.0-11.0-1.0-0.0","1003","<div><div style=""""><a style=""white-space:pre-wrap;""> for i in [1, 2]:
   a += 9
   a /= 2</a><a style=""""></a></div></div>","7","","1","","","7","1"
"","html-keyboard-response","189","568823","0.0-6.0-11.0-2.0-0.0","1826","<div><div style=""""><a style=""white-space:pre-wrap;""> for i in [1, 2]:
   a += 9
   a /= 2</a><a style=""""></a></div></div>","16","","1","","","16","2"
"","html-keyboard-response","190","569848","0.0-6.0-11.0-3.0-0.0","516","<div><div style=""""><a style=""white-space:pre-wrap;""> for i in [1, 2]:
   a += 9
   a /= 2</a><a style=""""></a></div></div>","8","","1","","","8","3"
"","html-keyboard-response","191","570792","0.0-6.0-11.0-4.0-0.0","436","<div><div style=""""><a style=""white-space:pre-wrap;""> for i in [1, 2]:
   a += 9
   a /= 2</a><a style=""""></a></div></div>","backspace","","1","","","backspace",""
"","html-keyboard-response","192","572682","0.0-7.0-1.0","1373","<p style=""font-size: 25px;"">Please press space to start the next program<br>>>>>>></p>"," ","","","","","",""
"","html-keyboard-response","193","573851","0.0-7.0-2.0","1168","<div><div style="" font-size:25px; color:green;""><a style=""white-space:pre-wrap;""> a = 7</a><a style=""""></a></div></div>","","null","","1","a = 7","",""
"","html-keyboard-response","194","576863","0.0-7.0-4.0-0.0-0.0","2505","<div><div style=""""><a style=""white-space:pre-wrap;""> while a <= 14:
   a *= 2
   a -= 4</a><a style=""""></a></div></div>","14","","1","","","14","0"
"","html-keyboard-response","195","577652","0.0-7.0-4.0-1.0-0.0","275","<div><div style=""""><a style=""white-space:pre-wrap;""> while a <= 14:
   a *= 2
   a -= 4</a><a style=""""></a></div></div>","10","","1","","","10","1"
"","html-keyboard-response","196","579636","0.0-7.0-4.0-2.0-0.0","1470","<div><div style=""""><a style=""white-space:pre-wrap;""> while a <= 14:
   a *= 2
   a -= 4</a><a style=""""></a></div></div>","20","","1","","","20","2"
"","html-keyboard-response","197","580407","0.0-7.0-4.0-3.0-0.0","259","<div><div style=""""><a style=""white-space:pre-wrap;""> while a <= 14:
   a *= 2
   a -= 4</a><a style=""""></a></div></div>","16","","1","","","16","3"
"","html-keyboard-response","198","581509","0.0-7.0-4.0-4.0-0.0","591","<div><div style=""""><a style=""white-space:pre-wrap;""> while a <= 14:
   a *= 2
   a -= 4</a><a style=""""></a></div></div>","backspace","","1","","","backspace",""
"","html-keyboard-response","199","591431","0.0-7.0-5.0-0.0-0.0","9409","<div><div style=""""><a style=""white-space:pre-wrap;""> while a >= 3:
   a /= 4
   a *= 2</a><a style=""""></a></div></div>","4","","1","","","4","0"
"","html-keyboard-response","200","593877","0.0-7.0-5.0-1.0-0.0","1930","<div><div style=""""><a style=""white-space:pre-wrap;""> while a >= 3:
   a /= 4
   a *= 2</a><a style=""""></a></div></div>","8","","1","","","8","1"
"","html-keyboard-response","201","596516","0.0-7.0-5.0-2.0-0.0","2126","<div><div style=""""><a style=""white-space:pre-wrap;""> while a >= 3:
   a /= 4
   a *= 2</a><a style=""""></a></div></div>","2","","1","","","2","2"
"","html-keyboard-response","202","597560","0.0-7.0-5.0-3.0-0.0","538","<div><div style=""""><a style=""white-space:pre-wrap;""> while a >= 3:
   a /= 4
   a *= 2</a><a style=""""></a></div></div>","4","","1","","","4","3"
"","html-keyboard-response","203","598964","0.0-7.0-5.0-4.0-0.0","888","<div><div style=""""><a style=""white-space:pre-wrap;""> while a >= 3:
   a /= 4
   a *= 2</a><a style=""""></a></div></div>","1","","1","","","1","4"
"","html-keyboard-response","204","599724","0.0-7.0-5.0-5.0-0.0","246","<div><div style=""""><a style=""white-space:pre-wrap;""> while a >= 3:
   a /= 4
   a *= 2</a><a style=""""></a></div></div>","2","","1","","","2","5"
"","html-keyboard-response","205","600617","0.0-7.0-5.0-6.0-0.0","379","<div><div style=""""><a style=""white-space:pre-wrap;""> while a >= 3:
   a /= 4
   a *= 2</a><a style=""""></a></div></div>","backspace","","1","","","backspace",""
"","html-keyboard-response","206","605586","0.0-7.0-6.0-0.0-0.0","4452","<div><div style=""""><a style=""white-space:pre-wrap;""> for i in [1, 2]:
   a = round_up(a*2.5)</a><a style=""""></a></div></div>","5","","1","","","5","0"
"","html-keyboard-response","207","609951","0.0-7.0-6.0-1.0-0.0","3849","<div><div style=""""><a style=""white-space:pre-wrap;""> for i in [1, 2]:
   a = round_up(a*2.5)</a><a style=""""></a></div></div>","13","","1","","","13","1"
"","html-keyboard-response","208","611040","0.0-7.0-6.0-2.0-0.0","575","<div><div style=""""><a style=""white-space:pre-wrap;""> for i in [1, 2]:
   a = round_up(a*2.5)</a><a style=""""></a></div></div>","backspace","","1","","","backspace",""
"","html-keyboard-response","209","614183","0.0-7.0-7.0-0.0-0.0","2630","<div><div style=""""><a style=""white-space:pre-wrap;""> while a >= 7:
   a = average(a,5)</a><a style=""""></a></div></div>","9","","1","","","9","0"
"","html-keyboard-response","210","616185","0.0-7.0-7.0-1.0-0.0","1499","<div><div style=""""><a style=""white-space:pre-wrap;""> while a >= 7:
   a = average(a,5)</a><a style=""""></a></div></div>","7","","1","","","7","1"
"","html-keyboard-response","211","617755","0.0-7.0-7.0-2.0-0.0","1053","<div><div style=""""><a style=""white-space:pre-wrap;""> while a >= 7:
   a = average(a,5)</a><a style=""""></a></div></div>","6","","1","","","6","2"
"","html-keyboard-response","212","618631","0.0-7.0-7.0-3.0-0.0","363","<div><div style=""""><a style=""white-space:pre-wrap;""> while a >= 7:
   a = average(a,5)</a><a style=""""></a></div></div>","backspace","","1","","","backspace",""
"","html-keyboard-response","213","622782","0.0-7.0-8.0-0.0-0.0","3647","<div><div style=""""><a style=""white-space:pre-wrap;""> for i in [1, 2]:
   a += 2
   a /= 2</a><a style=""""></a></div></div>","8","","1","","","8","0"
"","html-keyboard-response","214","623742","0.0-7.0-8.0-1.0-0.0","445","<div><div style=""""><a style=""white-space:pre-wrap;""> for i in [1, 2]:
   a += 2
   a /= 2</a><a style=""""></a></div></div>","4","","1","","","4","1"
"","html-keyboard-response","215","625552","0.0-7.0-8.0-2.0-0.0","1305","<div><div style=""""><a style=""white-space:pre-wrap;""> for i in [1, 2]:
   a += 2
   a /= 2</a><a style=""""></a></div></div>","6","","1","","","6","2"
"","html-keyboard-response","216","626378","0.0-7.0-8.0-3.0-0.0","320","<div><div style=""""><a style=""white-space:pre-wrap;""> for i in [1, 2]:
   a += 2
   a /= 2</a><a style=""""></a></div></div>","3","","1","","","3","3"
"","html-keyboard-response","217","627246","0.0-7.0-8.0-4.0-0.0","353","<div><div style=""""><a style=""white-space:pre-wrap;""> for i in [1, 2]:
   a += 2
   a /= 2</a><a style=""""></a></div></div>","backspace","","1","","","backspace",""
"","html-keyboard-response","218","629703","0.0-7.0-9.0-0.0-0.0","1951","<div><div style=""""><a style=""white-space:pre-wrap;""> for i in [1, 2]:
   a *= 2</a><a style=""""></a></div></div>","6","","1","","","6","0"
"","html-keyboard-response","219","630818","0.0-7.0-9.0-1.0-0.0","606","<div><div style=""""><a style=""white-space:pre-wrap;""> for i in [1, 2]:
   a *= 2</a><a style=""""></a></div></div>","12","","1","","","12","1"
"","html-keyboard-response","220","631818","0.0-7.0-9.0-2.0-0.0","485","<div><div style=""""><a style=""white-space:pre-wrap;""> for i in [1, 2]:
   a *= 2</a><a style=""""></a></div></div>","backspace","","1","","","backspace",""
"","html-keyboard-response","221","635470","0.0-7.0-10.0-0.0-0.0","3144","<div><div style=""""><a style=""white-space:pre-wrap;""> while a <= 14:
   a += 6
   a -= 4</a><a style=""""></a></div></div>","18","","1","","","18","0"
"","html-keyboard-response","222","636589","0.0-7.0-10.0-1.0-0.0","616","<div><div style=""""><a style=""white-space:pre-wrap;""> while a <= 14:
   a += 6
   a -= 4</a><a style=""""></a></div></div>","14","","1","","","14","1"
"","html-keyboard-response","223","638786","0.0-7.0-10.0-2.0-0.0","1683","<div><div style=""""><a style=""white-space:pre-wrap;""> while a <= 14:
   a += 6
   a -= 4</a><a style=""""></a></div></div>","20","","1","","","20","2"
"","html-keyboard-response","224","639652","0.0-7.0-10.0-3.0-0.0","359","<div><div style=""""><a style=""white-space:pre-wrap;""> while a <= 14:
   a += 6
   a -= 4</a><a style=""""></a></div></div>","16","","1","","","16","3"
"","html-keyboard-response","225","640735","0.0-7.0-10.0-4.0-0.0","571","<div><div style=""""><a style=""white-space:pre-wrap;""> while a <= 14:
   a += 6
   a -= 4</a><a style=""""></a></div></div>","backspace","","1","","","backspace",""
"","html-keyboard-response","226","645586","0.0-7.0-11.0-0.0-0.0","4337","<div><div style=""""><a style=""white-space:pre-wrap;""> while a >= 6:
   a -= 3</a><a style=""""></a></div></div>","13","","1","","","13","0"
"","html-keyboard-response","227","646875","0.0-7.0-11.0-1.0-0.0","774","<div><div style=""""><a style=""white-space:pre-wrap;""> while a >= 6:
   a -= 3</a><a style=""""></a></div></div>","10","","1","","","10","1"
"","html-keyboard-response","228","648251","0.0-7.0-11.0-2.0-0.0","870","<div><div style=""""><a style=""white-space:pre-wrap;""> while a >= 6:
   a -= 3</a><a style=""""></a></div></div>","7","","1","","","7","2"
"","html-keyboard-response","229","650226","0.0-7.0-11.0-3.0-0.0","1458","<div><div style=""""><a style=""white-space:pre-wrap;""> while a >= 6:
   a -= 3</a><a style=""""></a></div></div>","4","","1","","","4","3"
"","html-keyboard-response","230","651126","0.0-7.0-11.0-4.0-0.0","389","<div><div style=""""><a style=""white-space:pre-wrap;""> while a >= 6:
   a -= 3</a><a style=""""></a></div></div>","backspace","","1","","","backspace",""
"","html-keyboard-response","231","652811","0.0-8.0-1.0","1178","<p style=""font-size: 25px;"">Please press space to start the next program<br>>>>>>></p>"," ","","","","","",""
"","html-keyboard-response","232","654254","0.0-8.0-2.0","1442","<div><div style="" font-size:25px; color:green;""><a style=""white-space:pre-wrap;""> a = 9</a><a style=""""></a></div></div>","","null","","100","a = 9","",""
"","html-keyboard-response","233","657049","0.0-8.0-4.0-0.0-0.0","2288","<div><div style=""""><a style=""white-space:pre-wrap;""> while a >= 2:
   a /= 3</a><a style=""""></a></div></div>","3","","1","","","3","0"
"","html-keyboard-response","234","657986","0.0-8.0-4.0-1.0-0.0","425","<div><div style=""""><a style=""white-space:pre-wrap;""> while a >= 2:
   a /= 3</a><a style=""""></a></div></div>","1","","1","","","1","1"
"","html-keyboard-response","235","659022","0.0-8.0-4.0-2.0-0.0","531","<div><div style=""""><a style=""white-space:pre-wrap;""> while a >= 2:
   a /= 3</a><a style=""""></a></div></div>","backspace","","1","","","backspace",""
"","html-keyboard-response","236","661003","0.0-8.0-5.0-0.0-0.0","1472","<div><div style=""""><a style=""white-space:pre-wrap;""> while a <= 16:
   a += 6</a><a style=""""></a></div></div>","7","","1","","","7","0"
"","html-keyboard-response","237","662361","0.0-8.0-5.0-1.0-0.0","843","<div><div style=""""><a style=""white-space:pre-wrap;""> while a <= 16:
   a += 6</a><a style=""""></a></div></div>","13","","1","","","13","1"
"","html-keyboard-response","238","663497","0.0-8.0-5.0-2.0-0.0","623","<div><div style=""""><a style=""white-space:pre-wrap;""> while a <= 16:
   a += 6</a><a style=""""></a></div></div>","19","","1","","","19","2"
"","html-keyboard-response","239","664490","0.0-8.0-5.0-3.0-0.0","484","<div><div style=""""><a style=""white-space:pre-wrap;""> while a <= 16:
   a += 6</a><a style=""""></a></div></div>","backspace","","1","","","backspace",""
"","html-keyboard-response","240","666677","0.0-8.0-6.0-0.0-0.0","1676","<div><div style=""""><a style=""white-space:pre-wrap;""> for i in [1, 2]:
   a += 1
   a -= 8</a><a style=""""></a></div></div>","20","","1","","","20","0"
"","html-keyboard-response","241","668121","0.0-8.0-6.0-1.0-0.0","934","<div><div style=""""><a style=""white-space:pre-wrap;""> for i in [1, 2]:
   a += 1
   a -= 8</a><a style=""""></a></div></div>","12","","1","","","12","1"
"","html-keyboard-response","242","671852","0.0-8.0-6.0-2.0-0.0","3214","<div><div style=""""><a style=""white-space:pre-wrap;""> for i in [1, 2]:
   a += 1
   a -= 8</a><a style=""""></a></div></div>","13","","1","","","13","2"
"","html-keyboard-response","243","673279","0.0-8.0-6.0-3.0-0.0","914","<div><div style=""""><a style=""white-space:pre-wrap;""> for i in [1, 2]:
   a += 1
   a -= 8</a><a style=""""></a></div></div>","5","","1","","","5","3"
"","html-keyboard-response","244","674437","0.0-8.0-6.0-4.0-0.0","649","<div><div style=""""><a style=""white-space:pre-wrap;""> for i in [1, 2]:
   a += 1
   a -= 8</a><a style=""""></a></div></div>","backspace","","1","","","backspace",""
"","html-keyboard-response","245","677510","0.0-8.0-7.0-0.0-0.0","2570","<div><div style=""""><a style=""white-space:pre-wrap;""> for i in [1, 2]:
   a *= 3
   a -= 9</a><a style=""""></a></div></div>","15","","1","","","15","0"
"","html-keyboard-response","246","679002","0.0-8.0-7.0-1.0-0.0","979","<div><div style=""""><a style=""white-space:pre-wrap;""> for i in [1, 2]:
   a *= 3
   a -= 9</a><a style=""""></a></div></div>","6","","1","","","6","1"
"","html-keyboard-response","247","680453","0.0-8.0-7.0-2.0-0.0","944","<div><div style=""""><a style=""white-space:pre-wrap;""> for i in [1, 2]:
   a *= 3
   a -= 9</a><a style=""""></a></div></div>","18","","1","","","18","2"
"","html-keyboard-response","248","681407","0.0-8.0-7.0-3.0-0.0","446","<div><div style=""""><a style=""white-space:pre-wrap;""> for i in [1, 2]:
   a *= 3
   a -= 9</a><a style=""""></a></div></div>","9","","1","","","9","3"
"","html-keyboard-response","249","682478","0.0-8.0-7.0-4.0-0.0","566","<div><div style=""""><a style=""white-space:pre-wrap;""> for i in [1, 2]:
   a *= 3
   a -= 9</a><a style=""""></a></div></div>","backspace","","1","","","backspace",""
"","html-keyboard-response","250","685303","0.0-8.0-8.0-0.0-0.0","2316","<div><div style=""""><a style=""white-space:pre-wrap;""> while a >= 3:
   a = average(a, 1)</a><a style=""""></a></div></div>","5","","1","","","5","0"
"","html-keyboard-response","251","687377","0.0-8.0-8.0-1.0-0.0","1569","<div><div style=""""><a style=""white-space:pre-wrap;""> while a >= 3:
   a = average(a, 1)</a><a style=""""></a></div></div>","3","","1","","","3","1"
"","html-keyboard-response","252","689152","0.0-8.0-8.0-2.0-0.0","1262","<div><div style=""""><a style=""white-space:pre-wrap;""> while a >= 3:
   a = average(a, 1)</a><a style=""""></a></div></div>","2","","1","","","2","2"
"","html-keyboard-response","253","690064","0.0-8.0-8.0-3.0-0.0","398","<div><div style=""""><a style=""white-space:pre-wrap;""> while a >= 3:
   a = average(a, 1)</a><a style=""""></a></div></div>","backspace","","1","","","backspace",""
"","html-keyboard-response","254","692828","0.0-8.0-9.0-0.0-0.0","2251","<div><div style=""""><a style=""white-space:pre-wrap;""> for i in [1, 2]:
   a -= 1
   a *= 5</a><a style=""""></a></div></div>","1","","1","","","1","0"
"","html-keyboard-response","255","694593","0.0-8.0-9.0-1.0-0.0","1262","<div><div style=""""><a style=""white-space:pre-wrap;""> for i in [1, 2]:
   a -= 1
   a *= 5</a><a style=""""></a></div></div>","5","","1","","","5","1"
"","html-keyboard-response","256","696361","0.0-8.0-9.0-2.0-0.0","1261","<div><div style=""""><a style=""white-space:pre-wrap;""> for i in [1, 2]:
   a -= 1
   a *= 5</a><a style=""""></a></div></div>","4","","1","","","4","2"
"","html-keyboard-response","257","697276","0.0-8.0-9.0-3.0-0.0","410","<div><div style=""""><a style=""white-space:pre-wrap;""> for i in [1, 2]:
   a -= 1
   a *= 5</a><a style=""""></a></div></div>","20","","1","","","20","3"
"","html-keyboard-response","258","698256","0.0-8.0-9.0-4.0-0.0","472","<div><div style=""""><a style=""white-space:pre-wrap;""> for i in [1, 2]:
   a -= 1
   a *= 5</a><a style=""""></a></div></div>","backspace","","1","","","backspace",""
"","html-keyboard-response","259","701759","0.0-8.0-10.0-0.0-0.0","2987","<div><div style=""""><a style=""white-space:pre-wrap;""> for i in [1, 2, 3]:
   a -= 3</a><a style=""""></a></div></div>","17","","1","","","17","0"
"","html-keyboard-response","260","703311","0.0-8.0-10.0-1.0-0.0","1045","<div><div style=""""><a style=""white-space:pre-wrap;""> for i in [1, 2, 3]:
   a -= 3</a><a style=""""></a></div></div>","14","","1","","","14","1"
"","html-keyboard-response","261","704832","0.0-8.0-10.0-2.0-0.0","1004","<div><div style=""""><a style=""white-space:pre-wrap;""> for i in [1, 2, 3]:
   a -= 3</a><a style=""""></a></div></div>","11","","1","","","11","2"
"","html-keyboard-response","262","705977","0.0-8.0-10.0-3.0-0.0","636","<div><div style=""""><a style=""white-space:pre-wrap;""> for i in [1, 2, 3]:
   a -= 3</a><a style=""""></a></div></div>","backspace","","1","","","backspace",""
"","html-keyboard-response","263","708217","0.0-8.0-11.0-0.0-0.0","1722","<div><div style=""""><a style=""white-space:pre-wrap;""> while a >= 5:
   a -= 5</a><a style=""""></a></div></div>","6","","1","","","6","0"
"","html-keyboard-response","264","709203","0.0-8.0-11.0-1.0-0.0","470","<div><div style=""""><a style=""white-space:pre-wrap;""> while a >= 5:
   a -= 5</a><a style=""""></a></div></div>","1","","1","","","1","1"
"","html-keyboard-response","265","710038","0.0-8.0-11.0-2.0-0.0","330","<div><div style=""""><a style=""white-space:pre-wrap;""> while a >= 5:
   a -= 5</a><a style=""""></a></div></div>","backspace","","1","","","backspace",""
"","html-keyboard-response","266","711744","0.0-9.0-1.0","1203","<p style=""font-size: 25px;"">Please press space to start the next program<br>>>>>>></p>"," ","","","","","",""
"","html-keyboard-response","267","713427","0.0-9.0-2.0","1681","<div><div style="" font-size:25px; color:green;""><a style=""white-space:pre-wrap;""> a = 18</a><a style=""""></a></div></div>","","null","","28","a = 18","",""
"","html-keyboard-response","268","715440","0.0-9.0-4.0-0.0-0.0","1508","<div><div style=""""><a style=""white-space:pre-wrap;""> while a >= 10:
   a /= 3
   a *= 2</a><a style=""""></a></div></div>","6","","1","","","6","0"
"","html-keyboard-response","269","716613","0.0-9.0-4.0-1.0-0.0","669","<div><div style=""""><a style=""white-space:pre-wrap;""> while a >= 10:
   a /= 3
   a *= 2</a><a style=""""></a></div></div>","12","","1","","","12","1"
"","html-keyboard-response","270","718632","0.0-9.0-4.0-2.0-0.0","1507","<div><div style=""""><a style=""white-space:pre-wrap;""> while a >= 10:
   a /= 3
   a *= 2</a><a style=""""></a></div></div>","4","","1","","","4","2"
"","html-keyboard-response","271","719601","0.0-9.0-4.0-3.0-0.0","466","<div><div style=""""><a style=""white-space:pre-wrap;""> while a >= 10:
   a /= 3
   a *= 2</a><a style=""""></a></div></div>","8","","1","","","8","3"
"","html-keyboard-response","272","720812","0.0-9.0-4.0-4.0-0.0","698","<div><div style=""""><a style=""white-space:pre-wrap;""> while a >= 10:
   a /= 3
   a *= 2</a><a style=""""></a></div></div>","backspace","","1","","","backspace",""
"","html-keyboard-response","273","723396","0.0-9.0-5.0-0.0-0.0","2079","<div><div style=""""><a style=""white-space:pre-wrap;""> for i in [1, 2, 3]:
   a /= 2</a><a style=""""></a></div></div>","4","","1","","","4","0"
"","html-keyboard-response","274","724243","0.0-9.0-5.0-1.0-0.0","329","<div><div style=""""><a style=""white-space:pre-wrap;""> for i in [1, 2, 3]:
   a /= 2</a><a style=""""></a></div></div>","2","","1","","","2","1"
"","html-keyboard-response","275","725167","0.0-9.0-5.0-2.0-0.0","419","<div><div style=""""><a style=""white-space:pre-wrap;""> for i in [1, 2, 3]:
   a /= 2</a><a style=""""></a></div></div>","1","","1","","","1","2"
"","html-keyboard-response","276","726238","0.0-9.0-5.0-3.0-0.0","559","<div><div style=""""><a style=""white-space:pre-wrap;""> for i in [1, 2, 3]:
   a /= 2</a><a style=""""></a></div></div>","backspace","","1","","","backspace",""
"","html-keyboard-response","277","729495","0.0-9.0-6.0-0.0-0.0","2754","<div><div style=""""><a style=""white-space:pre-wrap;""> for i in [1, 2, 3, 4]:
   a += 2</a><a style=""""></a></div></div>","3","","1","","","3","0"
"","html-keyboard-response","278","730326","0.0-9.0-6.0-1.0-0.0","324","<div><div style=""""><a style=""white-space:pre-wrap;""> for i in [1, 2, 3, 4]:
   a += 2</a><a style=""""></a></div></div>","5","","1","","","5","1"
"","html-keyboard-response","279","731204","0.0-9.0-6.0-2.0-0.0","371","<div><div style=""""><a style=""white-space:pre-wrap;""> for i in [1, 2, 3, 4]:
   a += 2</a><a style=""""></a></div></div>","7","","1","","","7","2"
"","html-keyboard-response","280","732073","0.0-9.0-6.0-3.0-0.0","360","<div><div style=""""><a style=""white-space:pre-wrap;""> for i in [1, 2, 3, 4]:
   a += 2</a><a style=""""></a></div></div>","9","","1","","","9","3"
"","html-keyboard-response","281","732999","0.0-9.0-6.0-4.0-0.0","413","<div><div style=""""><a style=""white-space:pre-wrap;""> for i in [1, 2, 3, 4]:
   a += 2</a><a style=""""></a></div></div>","backspace","","1","","","backspace",""
"","html-keyboard-response","282","735967","0.0-9.0-7.0-0.0-0.0","2452","<div><div style=""""><a style=""white-space:pre-wrap;""> for i in [1, 2]:
   a += 9
   a /= 3</a><a style=""""></a></div></div>","18","","1","","","18","0"
"","html-keyboard-response","283","737766","0.0-9.0-7.0-1.0-0.0","1284","<div><div style=""""><a style=""white-space:pre-wrap;""> for i in [1, 2]:
   a += 9
   a /= 3</a><a style=""""></a></div></div>","6","","1","","","6","1"
"","html-keyboard-response","284","739174","0.0-9.0-7.0-2.0-0.0","895","<div><div style=""""><a style=""white-space:pre-wrap;""> for i in [1, 2]:
   a += 9
   a /= 3</a><a style=""""></a></div></div>","15","","1","","","15","2"
"","html-keyboard-response","285","740296","0.0-9.0-7.0-3.0-0.0","606","<div><div style=""""><a style=""white-space:pre-wrap;""> for i in [1, 2]:
   a += 9
   a /= 3</a><a style=""""></a></div></div>","5","","1","","","5","3"
"","html-keyboard-response","286","741211","0.0-9.0-7.0-4.0-0.0","405","<div><div style=""""><a style=""white-space:pre-wrap;""> for i in [1, 2]:
   a += 9
   a /= 3</a><a style=""""></a></div></div>","backspace","","1","","","backspace",""
"","html-keyboard-response","287","747572","0.0-9.0-8.0-0.0-0.0","5850","<div><div style=""""><a style=""white-space:pre-wrap;""> for i in [1, 2, 3]:
   a = round_down(a*1.5)</a><a style=""""></a></div></div>","7","","1","","","7","0"
"","html-keyboard-response","288","753564","0.0-9.0-8.0-1.0-0.0","5490","<div><div style=""""><a style=""white-space:pre-wrap;""> for i in [1, 2, 3]:
   a = round_down(a*1.5)</a><a style=""""></a></div></div>","10","","1","","","10","1"
"","html-keyboard-response","289","757277","0.0-9.0-8.0-2.0-0.0","3198","<div><div style=""""><a style=""white-space:pre-wrap;""> for i in [1, 2, 3]:
   a = round_down(a*1.5)</a><a style=""""></a></div></div>","15","","1","","","15","2"
"","html-keyboard-response","290","758458","0.0-9.0-8.0-3.0-0.0","669","<div><div style=""""><a style=""white-space:pre-wrap;""> for i in [1, 2, 3]:
   a = round_down(a*1.5)</a><a style=""""></a></div></div>","backspace","","1","","","backspace",""
"","html-keyboard-response","291","761037","0.0-9.0-9.0-0.0-0.0","2068","<div><div style=""""><a style=""white-space:pre-wrap;""> while a >= 8:
   a = average(a,3)</a><a style=""""></a></div></div>","9","","1","","","9","0"
"","html-keyboard-response","292","764130","0.0-9.0-9.0-1.0-0.0","2588","<div><div style=""""><a style=""white-space:pre-wrap;""> while a >= 8:
   a = average(a,3)</a><a style=""""></a></div></div>","6","","1","","","6","1"
"","html-keyboard-response","293","765139","0.0-9.0-9.0-2.0-0.0","507","<div><div style=""""><a style=""white-space:pre-wrap;""> while a >= 8:
   a = average(a,3)</a><a style=""""></a></div></div>","backspace","","1","","","backspace",""
"","html-keyboard-response","294","769324","0.0-9.0-10.0-0.0-0.0","3679","<div><div style=""""><a style=""white-space:pre-wrap;""> while a <= 11:
   a *= 2
   a -= 5</a><a style=""""></a></div></div>","12","","1","","","12","0"
"","html-keyboard-response","295","771110","0.0-9.0-10.0-1.0-0.0","1282","<div><div style=""""><a style=""white-space:pre-wrap;""> while a <= 11:
   a *= 2
   a -= 5</a><a style=""""></a></div></div>","7","","1","","","7","1"
"","html-keyboard-response","296","772920","0.0-9.0-10.0-2.0-0.0","1297","<div><div style=""""><a style=""white-space:pre-wrap;""> while a <= 11:
   a *= 2
   a -= 5</a><a style=""""></a></div></div>","14","","1","","","14","2"
"","html-keyboard-response","297","774142","0.0-9.0-10.0-3.0-0.0","708","<div><div style=""""><a style=""white-space:pre-wrap;""> while a <= 11:
   a *= 2
   a -= 5</a><a style=""""></a></div></div>","9","","1","","","9","3"
"","html-keyboard-response","298","775744","0.0-9.0-10.0-4.0-0.0","1092","<div><div style=""""><a style=""white-space:pre-wrap;""> while a <= 11:
   a *= 2
   a -= 5</a><a style=""""></a></div></div>","18","","1","","","18","4"
"","html-keyboard-response","299","776853","0.0-9.0-10.0-5.0-0.0","595","<div><div style=""""><a style=""white-space:pre-wrap;""> while a <= 11:
   a *= 2
   a -= 5</a><a style=""""></a></div></div>","13","","1","","","13","5"
"","html-keyboard-response","300","777787","0.0-9.0-10.0-6.0-0.0","422","<div><div style=""""><a style=""white-space:pre-wrap;""> while a <= 11:
   a *= 2
   a -= 5</a><a style=""""></a></div></div>","backspace","","1","","","backspace",""
"","html-keyboard-response","301","782666","0.0-9.0-11.0-0.0-0.0","4374","<div><div style=""""><a style=""white-space:pre-wrap;""> for i in [1, 2, 3]:
   a += 4
   a -= 7</a><a style=""""></a></div></div>","17","","1","","","17","0"
"","html-keyboard-response","302","783603","0.0-9.0-11.0-1.0-0.0","425","<div><div style=""""><a style=""white-space:pre-wrap;""> for i in [1, 2, 3]:
   a += 4
   a -= 7</a><a style=""""></a></div></div>","10","","1","","","10","1"
"","html-keyboard-response","303","785205","0.0-9.0-11.0-2.0-0.0","1094","<div><div style=""""><a style=""white-space:pre-wrap;""> for i in [1, 2, 3]:
   a += 4
   a -= 7</a><a style=""""></a></div></div>","14","","1","","","14","2"
"","html-keyboard-response","304","786115","0.0-9.0-11.0-3.0-0.0","398","<div><div style=""""><a style=""white-space:pre-wrap;""> for i in [1, 2, 3]:
   a += 4
   a -= 7</a><a style=""""></a></div></div>","7","","1","","","7","3"
"","html-keyboard-response","305","787951","0.0-9.0-11.0-4.0-0.0","1324","<div><div style=""""><a style=""white-space:pre-wrap;""> for i in [1, 2, 3]:
   a += 4
   a -= 7</a><a style=""""></a></div></div>","11","","1","","","11","4"
"","html-keyboard-response","306","788850","0.0-9.0-11.0-5.0-0.0","395","<div><div style=""""><a style=""white-space:pre-wrap;""> for i in [1, 2, 3]:
   a += 4
   a -= 7</a><a style=""""></a></div></div>","4","","1","","","4","5"
"","html-keyboard-response","307","789850","0.0-9.0-11.0-6.0-0.0","494","<div><div style=""""><a style=""white-space:pre-wrap;""> for i in [1, 2, 3]:
   a += 4
   a -= 7</a><a style=""""></a></div></div>","backspace","","1","","","backspace",""
"","html-keyboard-response","308","1027108","0.0-10.0-0.0-0.0","236747","<p style=""position:absolute; top:30%; font-size:25px; color:green;"" >Take a short break now</p>"," ","","","","","",""
"","html-keyboard-response","309","1028739","0.0-10.0-1.0","1630","<p style=""font-size: 25px;"">Please press space to start the next program<br>>>>>>></p>"," ","","","","","",""
"","html-keyboard-response","310","1030592","0.0-10.0-2.0","1851","<div><div style="" font-size:25px; color:green;""><a style=""white-space:pre-wrap;""> a = 11</a><a style=""""></a></div></div>","","null","","55","a = 11","",""
"","html-keyboard-response","311","1033579","0.0-10.0-4.0-0.0-0.0","2474","<div><div style=""""><a style=""white-space:pre-wrap;""> for i in [1, 2]:
   a += 4
   a /= 3</a><a style=""""></a></div></div>","15","","1","","","15","0"
"","html-keyboard-response","312","1034635","0.0-10.0-4.0-1.0-0.0","538","<div><div style=""""><a style=""white-space:pre-wrap;""> for i in [1, 2]:
   a += 4
   a /= 3</a><a style=""""></a></div></div>","5","","1","","","5","1"
"","html-keyboard-response","313","1035924","0.0-10.0-4.0-2.0-0.0","780","<div><div style=""""><a style=""white-space:pre-wrap;""> for i in [1, 2]:
   a += 4
   a /= 3</a><a style=""""></a></div></div>","9","","1","","","9","2"
"","html-keyboard-response","314","1036799","0.0-10.0-4.0-3.0-0.0","366","<div><div style=""""><a style=""white-space:pre-wrap;""> for i in [1, 2]:
   a += 4
   a /= 3</a><a style=""""></a></div></div>","3","","1","","","3","3"
"","html-keyboard-response","315","1037841","0.0-10.0-4.0-4.0-0.0","526","<div><div style=""""><a style=""white-space:pre-wrap;""> for i in [1, 2]:
   a += 4
   a /= 3</a><a style=""""></a></div></div>","backspace","","1","","","backspace",""
"","html-keyboard-response","316","1043805","0.0-10.0-5.0-0.0-0.0","5451","<div><div style=""""><a style=""white-space:pre-wrap;""> while a <= 11:
   a = round_down(a*2.5)</a><a style=""""></a></div></div>","7","","1","","","7","0"
"","html-keyboard-response","317","1047772","0.0-10.0-5.0-1.0-0.0","3455","<div><div style=""""><a style=""white-space:pre-wrap;""> while a <= 11:
   a = round_down(a*2.5)</a><a style=""""></a></div></div>","17","","1","","","17","1"
"","html-keyboard-response","318","1048888","0.0-10.0-5.0-2.0-0.0","607","<div><div style=""""><a style=""white-space:pre-wrap;""> while a <= 11:
   a = round_down(a*2.5)</a><a style=""""></a></div></div>","backspace","","1","","","backspace",""
"","html-keyboard-response","319","1051242","0.0-10.0-6.0-0.0-0.0","1842","<div><div style=""""><a style=""white-space:pre-wrap;""> while a >= 3:
   a = average(a,1)</a><a style=""""></a></div></div>","9","","1","","","9","0"
"","html-keyboard-response","320","1053100","0.0-10.0-6.0-1.0-0.0","1352","<div><div style=""""><a style=""white-space:pre-wrap;""> while a >= 3:
   a = average(a,1)</a><a style=""""></a></div></div>","5","","1","","","5","1"
"","html-keyboard-response","321","1054738","0.0-10.0-6.0-2.0-0.0","1134","<div><div style=""""><a style=""white-space:pre-wrap;""> while a >= 3:
   a = average(a,1)</a><a style=""""></a></div></div>","3","","1","","","3","2"
"","html-keyboard-response","322","1056143","0.0-10.0-6.0-3.0-0.0","898","<div><div style=""""><a style=""white-space:pre-wrap;""> while a >= 3:
   a = average(a,1)</a><a style=""""></a></div></div>","2","","1","","","2","3"
"","html-keyboard-response","323","1057179","0.0-10.0-6.0-4.0-0.0","519","<div><div style=""""><a style=""white-space:pre-wrap;""> while a >= 3:
   a = average(a,1)</a><a style=""""></a></div></div>","backspace","","1","","","backspace",""
"","html-keyboard-response","324","1060640","0.0-10.0-7.0-0.0-0.0","2945","<div><div style=""""><a style=""white-space:pre-wrap;""> while a <= 10:
   a *= 3
   a -= 1</a><a style=""""></a></div></div>","6","","1","","","6","0"
"","html-keyboard-response","325","1061899","0.0-10.0-7.0-1.0-0.0","749","<div><div style=""""><a style=""white-space:pre-wrap;""> while a <= 10:
   a *= 3
   a -= 1</a><a style=""""></a></div></div>","5","","1","","","5","1"
"","html-keyboard-response","326","1064979","0.0-10.0-7.0-2.0-0.0","2568","<div><div style=""""><a style=""white-space:pre-wrap;""> while a <= 10:
   a *= 3
   a -= 1</a><a style=""""></a></div></div>","15","","1","","","15","2"
"","html-keyboard-response","327","1065971","0.0-10.0-7.0-3.0-0.0","480","<div><div style=""""><a style=""white-space:pre-wrap;""> while a <= 10:
   a *= 3
   a -= 1</a><a style=""""></a></div></div>","14","","1","","","14","3"
"","html-keyboard-response","328","1066938","0.0-10.0-7.0-4.0-0.0","455","<div><div style=""""><a style=""white-space:pre-wrap;""> while a <= 10:
   a *= 3
   a -= 1</a><a style=""""></a></div></div>","backspace","","1","","","backspace",""
"","html-keyboard-response","329","1069870","0.0-10.0-8.0-0.0-0.0","2429","<div><div style=""""><a style=""white-space:pre-wrap;""> for i in [1, 2, 3]:
   a -= 5
   a += 1</a><a style=""""></a></div></div>","9","","1","","","9","0"
"","html-keyboard-response","330","1072796","0.0-10.0-8.0-1.0-0.0","2411","<div><div style=""""><a style=""white-space:pre-wrap;""> for i in [1, 2, 3]:
   a -= 5
   a += 1</a><a style=""""></a></div></div>","10","","1","","","10","1"
"","html-keyboard-response","331","1075194","0.0-10.0-8.0-2.0-0.0","1896","<div><div style=""""><a style=""white-space:pre-wrap;""> for i in [1, 2, 3]:
   a -= 5
   a += 1</a><a style=""""></a></div></div>","5","","1","","","5","2"
"","html-keyboard-response","332","1076119","0.0-10.0-8.0-3.0-0.0","419","<div><div style=""""><a style=""white-space:pre-wrap;""> for i in [1, 2, 3]:
   a -= 5
   a += 1</a><a style=""""></a></div></div>","6","","1","","","6","3"
"","html-keyboard-response","333","1077451","0.0-10.0-8.0-4.0-0.0","820","<div><div style=""""><a style=""white-space:pre-wrap;""> for i in [1, 2, 3]:
   a -= 5
   a += 1</a><a style=""""></a></div></div>","1","","1","","","1","4"
"","html-keyboard-response","334","1078222","0.0-10.0-8.0-5.0-0.0","254","<div><div style=""""><a style=""white-space:pre-wrap;""> for i in [1, 2, 3]:
   a -= 5
   a += 1</a><a style=""""></a></div></div>","2","","1","","","2","5"
"","html-keyboard-response","335","1079143","0.0-10.0-8.0-6.0-0.0","408","<div><div style=""""><a style=""white-space:pre-wrap;""> for i in [1, 2, 3]:
   a -= 5
   a += 1</a><a style=""""></a></div></div>","backspace","","1","","","backspace",""
"","html-keyboard-response","336","1082646","0.0-10.0-9.0-0.0-0.0","3000","<div><div style=""""><a style=""white-space:pre-wrap;""> for i in [1, 2]:
   a *= 3</a><a style=""""></a></div></div>","6","","1","","","6","0"
"","html-keyboard-response","337","1083916","0.0-10.0-9.0-1.0-0.0","759","<div><div style=""""><a style=""white-space:pre-wrap;""> for i in [1, 2]:
   a *= 3</a><a style=""""></a></div></div>","18","","1","","","18","1"
"","html-keyboard-response","338","1084911","0.0-10.0-9.0-2.0-0.0","477","<div><div style=""""><a style=""white-space:pre-wrap;""> for i in [1, 2]:
   a *= 3</a><a style=""""></a></div></div>","backspace","","1","","","backspace",""
"","html-keyboard-response","339","1088922","0.0-10.0-10.0-0.0-0.0","3499","<div><div style=""""><a style=""white-space:pre-wrap;""> for i in [1, 2]:
   a /= 3
   a *= 2</a><a style=""""></a></div></div>","6","","1","","","6","0"
"","html-keyboard-response","340","1090381","0.0-10.0-10.0-1.0-0.0","950","<div><div style=""""><a style=""white-space:pre-wrap;""> for i in [1, 2]:
   a /= 3
   a *= 2</a><a style=""""></a></div></div>","12","","1","","","12","1"
"","html-keyboard-response","341","1092213","0.0-10.0-10.0-2.0-0.0","1321","<div><div style=""""><a style=""white-space:pre-wrap;""> for i in [1, 2]:
   a /= 3
   a *= 2</a><a style=""""></a></div></div>","4","","1","","","4","2"
"","html-keyboard-response","342","1093257","0.0-10.0-10.0-3.0-0.0","541","<div><div style=""""><a style=""white-space:pre-wrap;""> for i in [1, 2]:
   a /= 3
   a *= 2</a><a style=""""></a></div></div>","8","","1","","","8","3"
"","html-keyboard-response","343","1094187","0.0-10.0-10.0-4.0-0.0","422","<div><div style=""""><a style=""white-space:pre-wrap;""> for i in [1, 2]:
   a /= 3
   a *= 2</a><a style=""""></a></div></div>","backspace","","1","","","backspace",""
"","html-keyboard-response","344","1098133","0.0-10.0-11.0-0.0-0.0","3429","<div><div style=""""><a style=""white-space:pre-wrap;""> while a <= 17:
   a += 4</a><a style=""""></a></div></div>","12","","1","","","12","0"
"","html-keyboard-response","345","1099108","0.0-10.0-11.0-1.0-0.0","460","<div><div style=""""><a style=""white-space:pre-wrap;""> while a <= 17:
   a += 4</a><a style=""""></a></div></div>","16","","1","","","16","1"
"","html-keyboard-response","346","1100003","0.0-10.0-11.0-2.0-0.0","385","<div><div style=""""><a style=""white-space:pre-wrap;""> while a <= 17:
   a += 4</a><a style=""""></a></div></div>","20","","1","","","20","2"
"","html-keyboard-response","347","1100957","0.0-10.0-11.0-3.0-0.0","443","<div><div style=""""><a style=""white-space:pre-wrap;""> while a <= 17:
   a += 4</a><a style=""""></a></div></div>","backspace","","1","","","backspace",""
"","html-keyboard-response","348","1102648","0.0-11.0-1.0","1174","<p style=""font-size: 25px;"">Please press space to start the next program<br>>>>>>></p>"," ","","","","","",""
"","html-keyboard-response","349","1104014","0.0-11.0-2.0","1365","<div><div style="" font-size:25px; color:green;""><a style=""white-space:pre-wrap;""> a = 8</a><a style=""""></a></div></div>","","null","","46","a = 8","",""
"","html-keyboard-response","350","1107681","0.0-11.0-4.0-0.0-0.0","3160","<div><div style=""""><a style=""white-space:pre-wrap;""> for i in [1, 2, 3]:
   a -= 2
   a += 6</a><a style=""""></a></div></div>","6","","1","","","6","0"
"","html-keyboard-response","351","1108868","0.0-11.0-4.0-1.0-0.0","678","<div><div style=""""><a style=""white-space:pre-wrap;""> for i in [1, 2, 3]:
   a -= 2
   a += 6</a><a style=""""></a></div></div>","12","","1","","","12","1"
"","html-keyboard-response","352","1110802","0.0-11.0-4.0-2.0-0.0","1417","<div><div style=""""><a style=""white-space:pre-wrap;""> for i in [1, 2, 3]:
   a -= 2
   a += 6</a><a style=""""></a></div></div>","10","","1","","","10","2"
"","html-keyboard-response","353","1111770","0.0-11.0-4.0-3.0-0.0","466","<div><div style=""""><a style=""white-space:pre-wrap;""> for i in [1, 2, 3]:
   a -= 2
   a += 6</a><a style=""""></a></div></div>","16","","1","","","16","3"
"","html-keyboard-response","354","1113269","0.0-11.0-4.0-4.0-0.0","989","<div><div style=""""><a style=""white-space:pre-wrap;""> for i in [1, 2, 3]:
   a -= 2
   a += 6</a><a style=""""></a></div></div>","14","","1","","","14","4"
"","html-keyboard-response","355","1114150","0.0-11.0-4.0-5.0-0.0","372","<div><div style=""""><a style=""white-space:pre-wrap;""> for i in [1, 2, 3]:
   a -= 2
   a += 6</a><a style=""""></a></div></div>","20","","1","","","20","5"
"","html-keyboard-response","356","1114964","0.0-11.0-4.0-6.0-0.0","305","<div><div style=""""><a style=""white-space:pre-wrap;""> for i in [1, 2, 3]:
   a -= 2
   a += 6</a><a style=""""></a></div></div>","backspace","","1","","","backspace",""
"","html-keyboard-response","357","1116842","0.0-11.0-5.0-0.0-0.0","1368","<div><div style=""""><a style=""white-space:pre-wrap;""> for i in [1, 2]:
   a /= 2</a><a style=""""></a></div></div>","10","","1","","","10","0"
"","html-keyboard-response","358","1117741","0.0-11.0-5.0-1.0-0.0","390","<div><div style=""""><a style=""white-space:pre-wrap;""> for i in [1, 2]:
   a /= 2</a><a style=""""></a></div></div>","5","","1","","","5","1"
"","html-keyboard-response","359","1118618","0.0-11.0-5.0-2.0-0.0","372","<div><div style=""""><a style=""white-space:pre-wrap;""> for i in [1, 2]:
   a /= 2</a><a style=""""></a></div></div>","backspace","","1","","","backspace",""
"","html-keyboard-response","360","1123805","0.0-11.0-6.0-0.0-0.0","4675","<div><div style=""""><a style=""white-space:pre-wrap;""> while a <= 15:
   a = round_up(a*1.5)</a><a style=""""></a></div></div>","8","","1","","","8","0"
"","html-keyboard-response","361","1129644","0.0-11.0-6.0-1.0-0.0","5335","<div><div style=""""><a style=""white-space:pre-wrap;""> while a <= 15:
   a = round_up(a*1.5)</a><a style=""""></a></div></div>","12","","1","","","12","1"
"","html-keyboard-response","362","1132974","0.0-11.0-6.0-2.0-0.0","2822","<div><div style=""""><a style=""white-space:pre-wrap;""> while a <= 15:
   a = round_up(a*1.5)</a><a style=""""></a></div></div>","18","","1","","","18","2"
"","html-keyboard-response","363","1134127","0.0-11.0-6.0-3.0-0.0","640","<div><div style=""""><a style=""white-space:pre-wrap;""> while a <= 15:
   a = round_up(a*1.5)</a><a style=""""></a></div></div>","backspace","","1","","","backspace",""
"","html-keyboard-response","364","1136928","0.0-11.0-7.0-0.0-0.0","2296","<div><div style=""""><a style=""white-space:pre-wrap;""> for i in [1, 2, 3, 4]:
   a = average(a,2)</a><a style=""""></a></div></div>","10","","1","","","10","0"
"","html-keyboard-response","365","1138424","0.0-11.0-7.0-1.0-0.0","982","<div><div style=""""><a style=""white-space:pre-wrap;""> for i in [1, 2, 3, 4]:
   a = average(a,2)</a><a style=""""></a></div></div>","6","","1","","","6","1"
"","html-keyboard-response","366","1140092","0.0-11.0-7.0-2.0-0.0","1159","<div><div style=""""><a style=""white-space:pre-wrap;""> for i in [1, 2, 3, 4]:
   a = average(a,2)</a><a style=""""></a></div></div>","4","","1","","","4","2"
"","html-keyboard-response","367","1141182","0.0-11.0-7.0-3.0-0.0","575","<div><div style=""""><a style=""white-space:pre-wrap;""> for i in [1, 2, 3, 4]:
   a = average(a,2)</a><a style=""""></a></div></div>","3","","1","","","3","3"
"","html-keyboard-response","368","1142539","0.0-11.0-7.0-4.0-0.0","847","<div><div style=""""><a style=""white-space:pre-wrap;""> for i in [1, 2, 3, 4]:
   a = average(a,2)</a><a style=""""></a></div></div>","backspace","","1","","","backspace",""
"","html-keyboard-response","369","1144891","0.0-11.0-8.0-0.0-0.0","1850","<div><div style=""""><a style=""white-space:pre-wrap;""> for i in [1, 2]:
   a += 7
   a /= 2</a><a style=""""></a></div></div>","10","","1","","","10","0"
"","html-keyboard-response","370","1146419","0.0-11.0-8.0-1.0-0.0","1026","<div><div style=""""><a style=""white-space:pre-wrap;""> for i in [1, 2]:
   a += 7
   a /= 2</a><a style=""""></a></div></div>","5","","1","","","5","1"
"","html-keyboard-response","371","1149211","0.0-11.0-8.0-2.0-0.0","2283","<div><div style=""""><a style=""white-space:pre-wrap;""> for i in [1, 2]:
   a += 7
   a /= 2</a><a style=""""></a></div></div>","12","","1","","","12","2"
"","html-keyboard-response","372","1150299","0.0-11.0-8.0-3.0-0.0","574","<div><div style=""""><a style=""white-space:pre-wrap;""> for i in [1, 2]:
   a += 7
   a /= 2</a><a style=""""></a></div></div>","6","","1","","","6","3"
"","html-keyboard-response","373","1152006","0.0-11.0-8.0-4.0-0.0","1194","<div><div style=""""><a style=""white-space:pre-wrap;""> for i in [1, 2]:
   a += 7
   a /= 2</a><a style=""""></a></div></div>","backspace","","1","","","backspace",""
"","html-keyboard-response","374","1154366","0.0-11.0-9.0-0.0-0.0","1856","<div><div style=""""><a style=""white-space:pre-wrap;""> while a <= 15:
   a += 3</a><a style=""""></a></div></div>","9","","1","","","9","0"
"","html-keyboard-response","375","1155576","0.0-11.0-9.0-1.0-0.0","703","<div><div style=""""><a style=""white-space:pre-wrap;""> while a <= 15:
   a += 3</a><a style=""""></a></div></div>","12","","1","","","12","1"
"","html-keyboard-response","376","1156634","0.0-11.0-9.0-2.0-0.0","544","<div><div style=""""><a style=""white-space:pre-wrap;""> while a <= 15:
   a += 3</a><a style=""""></a></div></div>","15","","1","","","15","2"
"","html-keyboard-response","377","1157915","0.0-11.0-9.0-3.0-0.0","772","<div><div style=""""><a style=""white-space:pre-wrap;""> while a <= 15:
   a += 3</a><a style=""""></a></div></div>","18","","1","","","18","3"
"","html-keyboard-response","378","1158829","0.0-11.0-9.0-4.0-0.0","399","<div><div style=""""><a style=""white-space:pre-wrap;""> while a <= 15:
   a += 3</a><a style=""""></a></div></div>","backspace","","1","","","backspace",""
"","html-keyboard-response","379","1160925","0.0-11.0-10.0-0.0-0.0","1582","<div><div style=""""><a style=""white-space:pre-wrap;""> for i in [1, 2]:
   a /= 3
   a *= 2</a><a style=""""></a></div></div>","6","","1","","","6","0"
"","html-keyboard-response","380","1162092","0.0-11.0-10.0-1.0-0.0","660","<div><div style=""""><a style=""white-space:pre-wrap;""> for i in [1, 2]:
   a /= 3
   a *= 2</a><a style=""""></a></div></div>","12","","1","","","12","1"
"","html-keyboard-response","381","1164169","0.0-11.0-10.0-2.0-0.0","1565","<div><div style=""""><a style=""white-space:pre-wrap;""> for i in [1, 2]:
   a /= 3
   a *= 2</a><a style=""""></a></div></div>","4","","1","","","4","2"
"","html-keyboard-response","382","1165041","0.0-11.0-10.0-3.0-0.0","370","<div><div style=""""><a style=""white-space:pre-wrap;""> for i in [1, 2]:
   a /= 3
   a *= 2</a><a style=""""></a></div></div>","8","","1","","","8","3"
"","html-keyboard-response","383","1166047","0.0-11.0-10.0-4.0-0.0","491","<div><div style=""""><a style=""white-space:pre-wrap;""> for i in [1, 2]:
   a /= 3
   a *= 2</a><a style=""""></a></div></div>","backspace","","1","","","backspace",""
"","html-keyboard-response","384","1168152","0.0-11.0-11.0-0.0-0.0","1598","<div><div style=""""><a style=""white-space:pre-wrap;""> for i in [1, 2, 3]:
   a *= 2
   a -= 9</a><a style=""""></a></div></div>","16","","1","","","16","0"
"","html-keyboard-response","385","1169931","0.0-11.0-11.0-1.0-0.0","1265","<div><div style=""""><a style=""white-space:pre-wrap;""> for i in [1, 2, 3]:
   a *= 2
   a -= 9</a><a style=""""></a></div></div>","7","","1","","","7","1"
"","html-keyboard-response","386","1171365","0.0-11.0-11.0-2.0-0.0","919","<div><div style=""""><a style=""white-space:pre-wrap;""> for i in [1, 2, 3]:
   a *= 2
   a -= 9</a><a style=""""></a></div></div>","14","","1","","","14","2"
"","html-keyboard-response","387","1173354","0.0-11.0-11.0-3.0-0.0","1476","<div><div style=""""><a style=""white-space:pre-wrap;""> for i in [1, 2, 3]:
   a *= 2
   a -= 9</a><a style=""""></a></div></div>","5","","1","","","5","3"
"","html-keyboard-response","388","1174292","0.0-11.0-11.0-4.0-0.0","434","<div><div style=""""><a style=""white-space:pre-wrap;""> for i in [1, 2, 3]:
   a *= 2
   a -= 9</a><a style=""""></a></div></div>","backspace","","0","","","10","4"
"","html-keyboard-response","390","1178709","0.0-11.0-11.0-5.0-0.0","398","<div><div style=""""><a style=""white-space:pre-wrap;""> for i in [1, 2, 3]:
   a *= 2
   a -= 9</a><a style=""""></a></div></div>","backspace","","0","","","1","5"
"","html-keyboard-response","392","1183505","0.0-11.0-11.0-6.0-0.0","773","<div><div style=""""><a style=""white-space:pre-wrap;""> for i in [1, 2, 3]:
   a *= 2
   a -= 9</a><a style=""""></a></div></div>","backspace","","1","","","backspace",""
"","html-keyboard-response","393","1186388","0.0-12.0-1.0","2369","<p style=""font-size: 25px;"">Please press space to start the next program<br>>>>>>></p>"," ","","","","","",""
"","html-keyboard-response","394","1188976","0.0-12.0-2.0","2587","<div><div style="" font-size:25px; color:green;""><a style=""white-space:pre-wrap;""> a = 7</a><a style=""""></a></div></div>","","null","","10","a = 7","",""
"","html-keyboard-response","395","1191292","0.0-12.0-4.0-0.0-0.0","1811","<div><div style=""""><a style=""white-space:pre-wrap;""> for i in [1, 2]:
   a *= 2
   a -= 4</a><a style=""""></a></div></div>","14","","1","","","14","0"
"","html-keyboard-response","396","1193131","0.0-12.0-4.0-1.0-0.0","1335","<div><div style=""""><a style=""white-space:pre-wrap;""> for i in [1, 2]:
   a *= 2
   a -= 4</a><a style=""""></a></div></div>","10","","1","","","10","1"
"","html-keyboard-response","397","1195176","0.0-12.0-4.0-2.0-0.0","1535","<div><div style=""""><a style=""white-space:pre-wrap;""> for i in [1, 2]:
   a *= 2
   a -= 4</a><a style=""""></a></div></div>","20","","1","","","20","2"
"","html-keyboard-response","398","1196141","0.0-12.0-4.0-3.0-0.0","448","<div><div style=""""><a style=""white-space:pre-wrap;""> for i in [1, 2]:
   a *= 2
   a -= 4</a><a style=""""></a></div></div>","16","","1","","","16","3"
"","html-keyboard-response","399","1197536","0.0-12.0-4.0-4.0-0.0","885","<div><div style=""""><a style=""white-space:pre-wrap;""> for i in [1, 2]:
   a *= 2
   a -= 4</a><a style=""""></a></div></div>","backspace","","1","","","backspace",""
"","html-keyboard-response","400","1200779","0.0-12.0-5.0-0.0-0.0","2726","<div><div style=""""><a style=""white-space:pre-wrap;""> while a >= 3:
   a /= 4
   a *= 2</a><a style=""""></a></div></div>","4","","1","","","4","0"
"","html-keyboard-response","401","1201808","0.0-12.0-5.0-1.0-0.0","522","<div><div style=""""><a style=""white-space:pre-wrap;""> while a >= 3:
   a /= 4
   a *= 2</a><a style=""""></a></div></div>","8","","1","","","8","1"
"","html-keyboard-response","402","1203481","0.0-12.0-5.0-2.0-0.0","1170","<div><div style=""""><a style=""white-space:pre-wrap;""> while a >= 3:
   a /= 4
   a *= 2</a><a style=""""></a></div></div>","2","","1","","","2","2"
"","html-keyboard-response","403","1204414","0.0-12.0-5.0-3.0-0.0","417","<div><div style=""""><a style=""white-space:pre-wrap;""> while a >= 3:
   a /= 4
   a *= 2</a><a style=""""></a></div></div>","4","","1","","","4","3"
"","html-keyboard-response","404","1205957","0.0-12.0-5.0-4.0-0.0","1026","<div><div style=""""><a style=""white-space:pre-wrap;""> while a >= 3:
   a /= 4
   a *= 2</a><a style=""""></a></div></div>","1","","1","","","1","4"
"","html-keyboard-response","405","1206769","0.0-12.0-5.0-5.0-0.0","310","<div><div style=""""><a style=""white-space:pre-wrap;""> while a >= 3:
   a /= 4
   a *= 2</a><a style=""""></a></div></div>","2","","1","","","2","5"
"","html-keyboard-response","406","1207632","0.0-12.0-5.0-6.0-0.0","360","<div><div style=""""><a style=""white-space:pre-wrap;""> while a >= 3:
   a /= 4
   a *= 2</a><a style=""""></a></div></div>","backspace","","1","","","backspace",""
"","html-keyboard-response","407","1210787","0.0-12.0-6.0-0.0-0.0","2643","<div><div style=""""><a style=""white-space:pre-wrap;""> while a <= 6:
   a = round_up(a*2.5)</a><a style=""""></a></div></div>","5","","1","","","5","0"
"","html-keyboard-response","408","1214651","0.0-12.0-6.0-1.0-0.0","3349","<div><div style=""""><a style=""white-space:pre-wrap;""> while a <= 6:
   a = round_up(a*2.5)</a><a style=""""></a></div></div>","13","","1","","","13","1"
"","html-keyboard-response","409","1215965","0.0-12.0-6.0-2.0-0.0","811","<div><div style=""""><a style=""white-space:pre-wrap;""> while a <= 6:
   a = round_up(a*2.5)</a><a style=""""></a></div></div>","backspace","","1","","","backspace",""
"","html-keyboard-response","410","1218455","0.0-12.0-7.0-0.0-0.0","1979","<div><div style=""""><a style=""white-space:pre-wrap;""> while a >= 7:
   a = average(a,5)</a><a style=""""></a></div></div>","9","","1","","","9","0"
"","html-keyboard-response","411","1220722","0.0-12.0-7.0-1.0-0.0","1763","<div><div style=""""><a style=""white-space:pre-wrap;""> while a >= 7:
   a = average(a,5)</a><a style=""""></a></div></div>","7","","1","","","7","1"
"","html-keyboard-response","412","1222277","0.0-12.0-7.0-2.0-0.0","1040","<div><div style=""""><a style=""white-space:pre-wrap;""> while a >= 7:
   a = average(a,5)</a><a style=""""></a></div></div>","6","","1","","","6","2"
"","html-keyboard-response","413","1223357","0.0-12.0-7.0-3.0-0.0","576","<div><div style=""""><a style=""white-space:pre-wrap;""> while a >= 7:
   a = average(a,5)</a><a style=""""></a></div></div>","backspace","","1","","","backspace",""
"","html-keyboard-response","414","1230753","0.0-12.0-8.0-0.0-0.0","6884","<div><div style=""""><a style=""white-space:pre-wrap;""> while a >= 4:
   a += 2
   a /= 2</a><a style=""""></a></div></div>","8","","1","","","8","0"
"","html-keyboard-response","415","1231755","0.0-12.0-8.0-1.0-0.0","487","<div><div style=""""><a style=""white-space:pre-wrap;""> while a >= 4:
   a += 2
   a /= 2</a><a style=""""></a></div></div>","4","","1","","","4","1"
"","html-keyboard-response","416","1233078","0.0-12.0-8.0-2.0-0.0","815","<div><div style=""""><a style=""white-space:pre-wrap;""> while a >= 4:
   a += 2
   a /= 2</a><a style=""""></a></div></div>","6","","1","","","6","2"
"","html-keyboard-response","417","1233971","0.0-12.0-8.0-3.0-0.0","383","<div><div style=""""><a style=""white-space:pre-wrap;""> while a >= 4:
   a += 2
   a /= 2</a><a style=""""></a></div></div>","3","","1","","","3","3"
"","html-keyboard-response","418","1235329","0.0-12.0-8.0-4.0-0.0","841","<div><div style=""""><a style=""white-space:pre-wrap;""> while a >= 4:
   a += 2
   a /= 2</a><a style=""""></a></div></div>","backspace","","1","","","backspace",""
"","html-keyboard-response","419","1238132","0.0-12.0-9.0-0.0-0.0","2298","<div><div style=""""><a style=""white-space:pre-wrap;""> for i in [1, 2]:
   a *= 2</a><a style=""""></a></div></div>","6","","1","","","6","0"
"","html-keyboard-response","420","1239445","0.0-12.0-9.0-1.0-0.0","798","<div><div style=""""><a style=""white-space:pre-wrap;""> for i in [1, 2]:
   a *= 2</a><a style=""""></a></div></div>","12","","1","","","12","1"
"","html-keyboard-response","421","1240399","0.0-12.0-9.0-2.0-0.0","447","<div><div style=""""><a style=""white-space:pre-wrap;""> for i in [1, 2]:
   a *= 2</a><a style=""""></a></div></div>","backspace","","1","","","backspace",""
"","html-keyboard-response","422","1242752","0.0-12.0-10.0-0.0-0.0","1842","<div><div style=""""><a style=""white-space:pre-wrap;""> for i in [1, 2]:
   a += 6
   a -= 4</a><a style=""""></a></div></div>","18","","1","","","18","0"
"","html-keyboard-response","423","1244132","0.0-12.0-10.0-1.0-0.0","865","<div><div style=""""><a style=""white-space:pre-wrap;""> for i in [1, 2]:
   a += 6
   a -= 4</a><a style=""""></a></div></div>","14","","1","","","14","1"
"","html-keyboard-response","424","1245771","0.0-12.0-10.0-2.0-0.0","1132","<div><div style=""""><a style=""white-space:pre-wrap;""> for i in [1, 2]:
   a += 6
   a -= 4</a><a style=""""></a></div></div>","20","","1","","","20","2"
"","html-keyboard-response","425","1246672","0.0-12.0-10.0-3.0-0.0","395","<div><div style=""""><a style=""white-space:pre-wrap;""> for i in [1, 2]:
   a += 6
   a -= 4</a><a style=""""></a></div></div>","16","","1","","","16","3"
"","html-keyboard-response","426","1247570","0.0-12.0-10.0-4.0-0.0","384","<div><div style=""""><a style=""white-space:pre-wrap;""> for i in [1, 2]:
   a += 6
   a -= 4</a><a style=""""></a></div></div>","backspace","","1","","","backspace",""
"","html-keyboard-response","427","1250374","0.0-12.0-11.0-0.0-0.0","2285","<div><div style=""""><a style=""white-space:pre-wrap;""> while a >= 6:
   a -= 3</a><a style=""""></a></div></div>","13","","1","","","13","0"
"","html-keyboard-response","428","1251518","0.0-12.0-11.0-1.0-0.0","627","<div><div style=""""><a style=""white-space:pre-wrap;""> while a >= 6:
   a -= 3</a><a style=""""></a></div></div>","10","","1","","","10","1"
"","html-keyboard-response","429","1253265","0.0-12.0-11.0-2.0-0.0","1242","<div><div style=""""><a style=""white-space:pre-wrap;""> while a >= 6:
   a -= 3</a><a style=""""></a></div></div>","7","","1","","","7","2"
"","html-keyboard-response","430","1254474","0.0-12.0-11.0-3.0-0.0","702","<div><div style=""""><a style=""white-space:pre-wrap;""> while a >= 6:
   a -= 3</a><a style=""""></a></div></div>","4","","1","","","4","3"
"","html-keyboard-response","431","1255358","0.0-12.0-11.0-4.0-0.0","379","<div><div style=""""><a style=""white-space:pre-wrap;""> while a >= 6:
   a -= 3</a><a style=""""></a></div></div>","backspace","","1","","","backspace",""
"","html-keyboard-response","432","1257308","0.0-13.0-1.0","1435","<p style=""font-size: 25px;"">Please press space to start the next program<br>>>>>>></p>"," ","","","","","",""
"","html-keyboard-response","433","1258654","0.0-13.0-2.0","1345","<div><div style="" font-size:25px; color:green;""><a style=""white-space:pre-wrap;""> a = 8</a><a style=""""></a></div></div>","","null","","37","a = 8","",""
"","html-keyboard-response","434","1261542","0.0-13.0-4.0-0.0-0.0","2372","<div><div style=""""><a style=""white-space:pre-wrap;""> while a <= 17:
   a -= 2
   a += 6</a><a style=""""></a></div></div>","6","","1","","","6","0"
"","html-keyboard-response","435","1262433","0.0-13.0-4.0-1.0-0.0","385","<div><div style=""""><a style=""white-space:pre-wrap;""> while a <= 17:
   a -= 2
   a += 6</a><a style=""""></a></div></div>","12","","1","","","12","1"
"","html-keyboard-response","436","1264668","0.0-13.0-4.0-2.0-0.0","1730","<div><div style=""""><a style=""white-space:pre-wrap;""> while a <= 17:
   a -= 2
   a += 6</a><a style=""""></a></div></div>","10","","1","","","10","2"
"","html-keyboard-response","437","1265609","0.0-13.0-4.0-3.0-0.0","435","<div><div style=""""><a style=""white-space:pre-wrap;""> while a <= 17:
   a -= 2
   a += 6</a><a style=""""></a></div></div>","16","","1","","","16","3"
"","html-keyboard-response","438","1267645","0.0-13.0-4.0-4.0-0.0","1529","<div><div style=""""><a style=""white-space:pre-wrap;""> while a <= 17:
   a -= 2
   a += 6</a><a style=""""></a></div></div>","14","","1","","","14","4"
"","html-keyboard-response","439","1268546","0.0-13.0-4.0-5.0-0.0","387","<div><div style=""""><a style=""white-space:pre-wrap;""> while a <= 17:
   a -= 2
   a += 6</a><a style=""""></a></div></div>","20","","1","","","20","5"
"","html-keyboard-response","440","1269451","0.0-13.0-4.0-6.0-0.0","401","<div><div style=""""><a style=""white-space:pre-wrap;""> while a <= 17:
   a -= 2
   a += 6</a><a style=""""></a></div></div>","backspace","","1","","","backspace",""
"","html-keyboard-response","441","1271441","0.0-13.0-5.0-0.0-0.0","1479","<div><div style=""""><a style=""white-space:pre-wrap;""> for i in [1, 2]:
   a /= 2</a><a style=""""></a></div></div>","10","","1","","","10","0"
"","html-keyboard-response","442","1272351","0.0-13.0-5.0-1.0-0.0","393","<div><div style=""""><a style=""white-space:pre-wrap;""> for i in [1, 2]:
   a /= 2</a><a style=""""></a></div></div>","5","","1","","","5","1"
"","html-keyboard-response","443","1273319","0.0-13.0-5.0-2.0-0.0","461","<div><div style=""""><a style=""white-space:pre-wrap;""> for i in [1, 2]:
   a /= 2</a><a style=""""></a></div></div>","backspace","","1","","","backspace",""
