success,trial_type,trial_index,time_elapsed,internal_node_id,rt,stimulus,response,expected_response,correct,uid,text1,correct_response,loop_step
TRUE,fullscreen,0,19712,0.0-0.0,,,,,,,,,
,html-keyboard-response,1,24822,0.0-1.0,5105,Please make sure that your keyboard is in English mode. Press 'A' to continue,a,,,,,,
,html-keyboard-response,2,27152,0.0-2.0-1.0,2328,"<p style=""font-size: 25px;"">Please press space to start the next program<br>>>>>>></p>", ,,,,,,
,html-keyboard-response,3,31948,0.0-2.0-2.0,4795,"<div><div style="" font-size:25px; color:green;""><a style=""white-space:pre-wrap;""> a = 8</a><a style=""""></a></div></div>",,null,,37,a = 8,,
,html-keyboard-response,4,33700,0.0-2.0-4.0-0.0-0.0,1245,"<div><div style=""""><a style=""white-space:pre-wrap;""> while a <= 17:
   a -= 2
   a += 6</a><a style=""""></a></div></div>",6,6,1,38,"while a <= 17:
   a -= 2
   a += 6",6,0
,html-keyboard-response,5,35087,0.0-2.0-4.0-1.0-0.0,876,"<div><div style=""""><a style=""white-space:pre-wrap;""> while a <= 17:
   a -= 2
   a += 6</a><a style=""""></a></div></div>",12,12,1,38,"while a <= 17:
   a -= 2
   a += 6",12,1
,html-keyboard-response,6,37718,0.0-2.0-4.0-2.0-0.0,2120,"<div><div style=""""><a style=""white-space:pre-wrap;""> while a <= 17:
   a -= 2
   a += 6</a><a style=""""></a></div></div>",10,10,1,38,"while a <= 17:
   a -= 2
   a += 6",10,2
,html-keyboard-response,7,39395,0.0-2.0-4.0-3.0-0.0,1161,"<div><div style=""""><a style=""white-space:pre-wrap;""> while a <= 17:
   a -= 2
   a += 6</a><a style=""""></a></div></div>",16,16,1,38,"while a <= 17:
   a -= 2
   a += 6",16,3
,html-keyboard-response,8,42026,0.0-2.0-4.0-4.0-0.0,2116,"<div><div style=""""><a style=""white-space:pre-wrap;""> while a <= 17:
   a -= 2
   a += 6</a><a style=""""></a></div></div>",14,14,1,38,"while a <= 17:
   a -= 2
   a += 6",14,4
,html-keyboard-response,9,43665,0.0-2.0-4.0-5.0-0.0,1130,"<div><div style=""""><a style=""white-space:pre-wrap;""> while a <= 17:
   a -= 2
   a += 6</a><a style=""""></a></div></div>",20,20,1,38,"while a <= 17:
   a -= 2
   a += 6",20,5
,html-keyboard-response,10,44607,0.0-2.0-4.0-6.0-0.0,428,"<div><div style=""""><a style=""white-space:pre-wrap;""> while a <= 17:
   a -= 2
   a += 6</a><a style=""""></a></div></div>",backspace,,1,,,backspace,
,html-keyboard-response,11,46440,0.0-2.0-5.0-0.0-0.0,1321,"<div><div style=""""><a style=""white-space:pre-wrap;""> for i in [1, 2]:
   a /= 2</a><a style=""""></a></div></div>",10,10,1,39,"for i in [1, 2]:
   a /= 2",10,0
,html-keyboard-response,12,49037,0.0-2.0-5.0-1.0-0.0,2083,"<div><div style=""""><a style=""white-space:pre-wrap;""> for i in [1, 2]:
   a /= 2</a><a style=""""></a></div></div>",5,5,1,39,"for i in [1, 2]:
   a /= 2",5,1
,html-keyboard-response,13,49873,0.0-2.0-5.0-2.0-0.0,330,"<div><div style=""""><a style=""white-space:pre-wrap;""> for i in [1, 2]:
   a /= 2</a><a style=""""></a></div></div>",backspace,,1,,,backspace,
,html-keyboard-response,14,67248,0.0-2.0-6.0-0.0-0.0,16865,"<div><div style=""""><a style=""white-space:pre-wrap;""> for i in [1, 2, 3]:
   a = round_up(a*1.5)</a><a style=""""></a></div></div>",9,8,0,40,"for i in [1, 2, 3]:
   a = round_up(a*1.5)",8,0
,html-keyboard-response,16,83063,0.0-2.0-6.0-1.0-0.0,11798,"<div><div style=""""><a style=""white-space:pre-wrap;""> for i in [1, 2, 3]:
   a = round_up(a*1.5)</a><a style=""""></a></div></div>",12,12,1,40,"for i in [1, 2, 3]:
   a = round_up(a*1.5)",12,1
,html-keyboard-response,17,87484,0.0-2.0-6.0-2.0-0.0,3918,"<div><div style=""""><a style=""white-space:pre-wrap;""> for i in [1, 2, 3]:
   a = round_up(a*1.5)</a><a style=""""></a></div></div>",18,18,1,40,"for i in [1, 2, 3]:
   a = round_up(a*1.5)",18,2
,html-keyboard-response,18,88969,0.0-2.0-6.0-3.0-0.0,977,"<div><div style=""""><a style=""white-space:pre-wrap;""> for i in [1, 2, 3]:
   a = round_up(a*1.5)</a><a style=""""></a></div></div>",backspace,,1,,,backspace,
,html-keyboard-response,19,94015,0.0-2.0-7.0-0.0-0.0,4529,"<div><div style=""""><a style=""white-space:pre-wrap;""> for i in [1, 2, 3, 4]:
   a = average(a,2)</a><a style=""""></a></div></div>",10,10,1,41,"for i in [1, 2, 3, 4]:
   a = average(a,2)",10,0
,html-keyboard-response,20,95940,0.0-2.0-7.0-1.0-0.0,1410,"<div><div style=""""><a style=""white-space:pre-wrap;""> for i in [1, 2, 3, 4]:
   a = average(a,2)</a><a style=""""></a></div></div>",6,6,1,41,"for i in [1, 2, 3, 4]:
   a = average(a,2)",6,1
,html-keyboard-response,21,100248,0.0-2.0-7.0-2.0-0.0,3796,"<div><div style=""""><a style=""white-space:pre-wrap;""> for i in [1, 2, 3, 4]:
   a = average(a,2)</a><a style=""""></a></div></div>",4,4,1,41,"for i in [1, 2, 3, 4]:
   a = average(a,2)",4,2
,html-keyboard-response,22,102375,0.0-2.0-7.0-3.0-0.0,1621,"<div><div style=""""><a style=""white-space:pre-wrap;""> for i in [1, 2, 3, 4]:
   a = average(a,2)</a><a style=""""></a></div></div>",3,3,1,41,"for i in [1, 2, 3, 4]:
   a = average(a,2)",3,3
,html-keyboard-response,23,106227,0.0-2.0-7.0-4.0-0.0,3341,"<div><div style=""""><a style=""white-space:pre-wrap;""> for i in [1, 2, 3, 4]:
   a = average(a,2)</a><a style=""""></a></div></div>",backspace,,1,,,backspace,
,html-keyboard-response,24,109320,0.0-2.0-8.0-0.0-0.0,2588,"<div><div style=""""><a style=""white-space:pre-wrap;""> while a <= 5:
   a += 7
   a /= 2</a><a style=""""></a></div></div>",10,10,1,42,"while a <= 5:
   a += 7
   a /= 2",10,0
,html-keyboard-response,25,110403,0.0-2.0-8.0-1.0-0.0,566,"<div><div style=""""><a style=""white-space:pre-wrap;""> while a <= 5:
   a += 7
   a /= 2</a><a style=""""></a></div></div>",5,5,1,42,"while a <= 5:
   a += 7
   a /= 2",5,1
,html-keyboard-response,26,112427,0.0-2.0-8.0-2.0-0.0,1522,"<div><div style=""""><a style=""white-space:pre-wrap;""> while a <= 5:
   a += 7
   a /= 2</a><a style=""""></a></div></div>",12,12,1,42,"while a <= 5:
   a += 7
   a /= 2",12,2
,html-keyboard-response,27,115829,0.0-2.0-8.0-3.0-0.0,2871,"<div><div style=""""><a style=""white-space:pre-wrap;""> while a <= 5:
   a += 7
   a /= 2</a><a style=""""></a></div></div>",5,6,0,42,"while a <= 5:
   a += 7
   a /= 2",6,3
,html-keyboard-response,29,121836,0.0-2.0-8.0-4.0-0.0,1976,"<div><div style=""""><a style=""white-space:pre-wrap;""> while a <= 5:
   a += 7
   a /= 2</a><a style=""""></a></div></div>",backspace,,1,,,backspace,
,html-keyboard-response,30,123640,0.0-2.0-9.0-0.0-0.0,1299,"<div><div style=""""><a style=""white-space:pre-wrap;""> while a <= 15:
   a += 3</a><a style=""""></a></div></div>",9,9,1,43,"while a <= 15:
   a += 3",9,0
,html-keyboard-response,31,127113,0.0-2.0-9.0-1.0-0.0,2895,"<div><div style=""""><a style=""white-space:pre-wrap;""> while a <= 15:
   a += 3</a><a style=""""></a></div></div>",12,12,1,43,"while a <= 15:
   a += 3",12,1
,html-keyboard-response,32,129028,0.0-2.0-9.0-2.0-0.0,1407,"<div><div style=""""><a style=""white-space:pre-wrap;""> while a <= 15:
   a += 3</a><a style=""""></a></div></div>",15,15,1,43,"while a <= 15:
   a += 3",15,2
,html-keyboard-response,33,130305,0.0-2.0-9.0-3.0-0.0,763,"<div><div style=""""><a style=""white-space:pre-wrap;""> while a <= 15:
   a += 3</a><a style=""""></a></div></div>",backspace,18,0,43,"while a <= 15:
   a += 3",18,3
,html-keyboard-response,35,136096,0.0-2.0-9.0-4.0-0.0,1775,"<div><div style=""""><a style=""white-space:pre-wrap;""> while a <= 15:
   a += 3</a><a style=""""></a></div></div>",backspace,,1,,,backspace,
,html-keyboard-response,36,138790,0.0-2.0-10.0-0.0-0.0,2178,"<div><div style=""""><a style=""white-space:pre-wrap;""> while a >= 12:
   a /= 3
   a *= 2</a><a style=""""></a></div></div>",6,6,1,44,"while a >= 12:
   a /= 3
   a *= 2",6,0
,html-keyboard-response,37,142560,0.0-2.0-10.0-1.0-0.0,3266,"<div><div style=""""><a style=""white-space:pre-wrap;""> while a >= 12:
   a /= 3
   a *= 2</a><a style=""""></a></div></div>",12,12,1,44,"while a >= 12:
   a /= 3
   a *= 2",12,1
,html-keyboard-response,38,147672,0.0-2.0-10.0-2.0-0.0,4607,"<div><div style=""""><a style=""white-space:pre-wrap;""> while a >= 12:
   a /= 3
   a *= 2</a><a style=""""></a></div></div>",4,4,1,44,"while a >= 12:
   a /= 3
   a *= 2",4,2
,html-keyboard-response,39,149066,0.0-2.0-10.0-3.0-0.0,878,"<div><div style=""""><a style=""white-space:pre-wrap;""> while a >= 12:
   a /= 3
   a *= 2</a><a style=""""></a></div></div>",8,8,1,44,"while a >= 12:
   a /= 3
   a *= 2",8,3
,html-keyboard-response,40,150399,0.0-2.0-10.0-4.0-0.0,820,"<div><div style=""""><a style=""white-space:pre-wrap;""> while a >= 12:
   a /= 3
   a *= 2</a><a style=""""></a></div></div>",backspace,,1,,,backspace,
,html-keyboard-response,41,155151,0.0-2.0-11.0-0.0-0.0,4246,"<div><div style=""""><a style=""white-space:pre-wrap;""> for i in [1, 2, 3]:
   a *= 2
   a -= 9</a><a style=""""></a></div></div>",16,16,1,45,"for i in [1, 2, 3]:
   a *= 2
   a -= 9",16,0
,html-keyboard-response,42,159159,0.0-2.0-11.0-1.0-0.0,3491,"<div><div style=""""><a style=""white-space:pre-wrap;""> for i in [1, 2, 3]:
   a *= 2
   a -= 9</a><a style=""""></a></div></div>",7,7,1,45,"for i in [1, 2, 3]:
   a *= 2
   a -= 9",7,1
,html-keyboard-response,43,161302,0.0-2.0-11.0-2.0-0.0,1634,"<div><div style=""""><a style=""white-space:pre-wrap;""> for i in [1, 2, 3]:
   a *= 2
   a -= 9</a><a style=""""></a></div></div>",14,14,1,45,"for i in [1, 2, 3]:
   a *= 2
   a -= 9",14,2
,html-keyboard-response,44,167770,0.0-2.0-11.0-3.0-0.0,5951,"<div><div style=""""><a style=""white-space:pre-wrap;""> for i in [1, 2, 3]:
   a *= 2
   a -= 9</a><a style=""""></a></div></div>",5,5,1,45,"for i in [1, 2, 3]:
   a *= 2
   a -= 9",5,3
,html-keyboard-response,45,170223,0.0-2.0-11.0-4.0-0.0,1944,"<div><div style=""""><a style=""white-space:pre-wrap;""> for i in [1, 2, 3]:
   a *= 2
   a -= 9</a><a style=""""></a></div></div>",10,10,1,45,"for i in [1, 2, 3]:
   a *= 2
   a -= 9",10,4
,html-keyboard-response,46,171429,0.0-2.0-11.0-5.0-0.0,691,"<div><div style=""""><a style=""white-space:pre-wrap;""> for i in [1, 2, 3]:
   a *= 2
   a -= 9</a><a style=""""></a></div></div>",1,1,1,45,"for i in [1, 2, 3]:
   a *= 2
   a -= 9",1,5
,html-keyboard-response,47,172469,0.0-2.0-11.0-6.0-0.0,528,"<div><div style=""""><a style=""white-space:pre-wrap;""> for i in [1, 2, 3]:
   a *= 2
   a -= 9</a><a style=""""></a></div></div>",backspace,,1,,,backspace,
,html-keyboard-response,48,175701,0.0-3.0-1.0,2729,"<p style=""font-size: 25px;"">Please press space to start the next program<br>>>>>>></p>", ,,,,,,
,html-keyboard-response,49,178304,0.0-3.0-2.0,2601,"<div><div style="" font-size:25px; color:green;""><a style=""white-space:pre-wrap;""> a = 7</a><a style=""""></a></div></div>",,null,,10,a = 7,,
,html-keyboard-response,50,183883,0.0-3.0-4.0-0.0-0.0,5076,"<div><div style=""""><a style=""white-space:pre-wrap;""> for i in [1, 2]:
   a *= 2
   a -= 4</a><a style=""""></a></div></div>",14,14,1,11,"for i in [1, 2]:
   a *= 2
   a -= 4",14,0
,html-keyboard-response,51,187007,0.0-3.0-4.0-1.0-0.0,2608,"<div><div style=""""><a style=""white-space:pre-wrap;""> for i in [1, 2]:
   a *= 2
   a -= 4</a><a style=""""></a></div></div>",10,10,1,11,"for i in [1, 2]:
   a *= 2
   a -= 4",10,1
,html-keyboard-response,52,189453,0.0-3.0-4.0-2.0-0.0,1929,"<div><div style=""""><a style=""white-space:pre-wrap;""> for i in [1, 2]:
   a *= 2
   a -= 4</a><a style=""""></a></div></div>",20,20,1,11,"for i in [1, 2]:
   a *= 2
   a -= 4",20,2
,html-keyboard-response,53,190324,0.0-3.0-4.0-3.0-0.0,366,"<div><div style=""""><a style=""white-space:pre-wrap;""> for i in [1, 2]:
   a *= 2
   a -= 4</a><a style=""""></a></div></div>",16,16,1,11,"for i in [1, 2]:
   a *= 2
   a -= 4",16,3
,html-keyboard-response,54,191345,0.0-3.0-4.0-4.0-0.0,515,"<div><div style=""""><a style=""white-space:pre-wrap;""> for i in [1, 2]:
   a *= 2
   a -= 4</a><a style=""""></a></div></div>",backspace,,1,,,backspace,
,html-keyboard-response,55,193815,0.0-3.0-5.0-0.0-0.0,1956,"<div><div style=""""><a style=""white-space:pre-wrap;""> while a >= 3:
   a /= 4
   a *= 2</a><a style=""""></a></div></div>",4,4,1,12,"while a >= 3:
   a /= 4
   a *= 2",4,0
,html-keyboard-response,56,194745,0.0-3.0-5.0-1.0-0.0,414,"<div><div style=""""><a style=""white-space:pre-wrap;""> while a >= 3:
   a /= 4
   a *= 2</a><a style=""""></a></div></div>",8,8,1,12,"while a >= 3:
   a /= 4
   a *= 2",8,1
,html-keyboard-response,57,195820,0.0-3.0-5.0-2.0-0.0,564,"<div><div style=""""><a style=""white-space:pre-wrap;""> while a >= 3:
   a /= 4
   a *= 2</a><a style=""""></a></div></div>",2,2,1,12,"while a >= 3:
   a /= 4
   a *= 2",2,2
,html-keyboard-response,58,196920,0.0-3.0-5.0-3.0-0.0,598,"<div><div style=""""><a style=""white-space:pre-wrap;""> while a >= 3:
   a /= 4
   a *= 2</a><a style=""""></a></div></div>",4,4,1,12,"while a >= 3:
   a /= 4
   a *= 2",4,3
,html-keyboard-response,59,200773,0.0-3.0-5.0-4.0-0.0,3348,"<div><div style=""""><a style=""white-space:pre-wrap;""> while a >= 3:
   a /= 4
   a *= 2</a><a style=""""></a></div></div>",backspace,1,0,12,"while a >= 3:
   a /= 4
   a *= 2",1,4
,html-keyboard-response,61,208215,0.0-3.0-5.0-5.0-0.0,3411,"<div><div style=""""><a style=""white-space:pre-wrap;""> while a >= 3:
   a /= 4
   a *= 2</a><a style=""""></a></div></div>",2,2,1,12,"while a >= 3:
   a /= 4
   a *= 2",2,5
,html-keyboard-response,62,210071,0.0-3.0-5.0-6.0-0.0,1344,"<div><div style=""""><a style=""white-space:pre-wrap;""> while a >= 3:
   a /= 4
   a *= 2</a><a style=""""></a></div></div>",backspace,,1,,,backspace,
,html-keyboard-response,63,216742,0.0-3.0-6.0-0.0-0.0,6166,"<div><div style=""""><a style=""white-space:pre-wrap;""> while a <= 6:
   a = round_up(a*2.5)</a><a style=""""></a></div></div>",5,5,1,13,"while a <= 6:
   a = round_up(a*2.5)",5,0
,html-keyboard-response,64,233102,0.0-3.0-6.0-1.0-0.0,15845,"<div><div style=""""><a style=""white-space:pre-wrap;""> while a <= 6:
   a = round_up(a*2.5)</a><a style=""""></a></div></div>",13,13,1,13,"while a <= 6:
   a = round_up(a*2.5)",13,1
,html-keyboard-response,65,235246,0.0-3.0-6.0-2.0-0.0,1632,"<div><div style=""""><a style=""white-space:pre-wrap;""> while a <= 6:
   a = round_up(a*2.5)</a><a style=""""></a></div></div>",backspace,,1,,,backspace,
,html-keyboard-response,66,240695,0.0-3.0-7.0-0.0-0.0,4942,"<div><div style=""""><a style=""white-space:pre-wrap;""> while a >= 7:
   a = average(a,5)</a><a style=""""></a></div></div>",9,9,1,14,"while a >= 7:
   a = average(a,5)",9,0
,html-keyboard-response,67,248802,0.0-3.0-7.0-1.0-0.0,7605,"<div><div style=""""><a style=""white-space:pre-wrap;""> while a >= 7:
   a = average(a,5)</a><a style=""""></a></div></div>",7,7,1,14,"while a >= 7:
   a = average(a,5)",7,1
,html-keyboard-response,68,252589,0.0-3.0-7.0-2.0-0.0,3282,"<div><div style=""""><a style=""white-space:pre-wrap;""> while a >= 7:
   a = average(a,5)</a><a style=""""></a></div></div>",6,6,1,14,"while a >= 7:
   a = average(a,5)",6,2
,html-keyboard-response,69,254339,0.0-3.0-7.0-3.0-0.0,1244,"<div><div style=""""><a style=""white-space:pre-wrap;""> while a >= 7:
   a = average(a,5)</a><a style=""""></a></div></div>",backspace,,1,,,backspace,
,html-keyboard-response,70,257048,0.0-3.0-8.0-0.0-0.0,2204,"<div><div style=""""><a style=""white-space:pre-wrap;""> while a >= 4:
   a += 2
   a /= 2</a><a style=""""></a></div></div>",8,8,1,15,"while a >= 4:
   a += 2
   a /= 2",8,0
,html-keyboard-response,71,259066,0.0-3.0-8.0-1.0-0.0,1505,"<div><div style=""""><a style=""white-space:pre-wrap;""> while a >= 4:
   a += 2
   a /= 2</a><a style=""""></a></div></div>",4,4,1,15,"while a >= 4:
   a += 2
   a /= 2",4,1
,html-keyboard-response,72,261063,0.0-3.0-8.0-2.0-0.0,1482,"<div><div style=""""><a style=""white-space:pre-wrap;""> while a >= 4:
   a += 2
   a /= 2</a><a style=""""></a></div></div>",6,6,1,15,"while a >= 4:
   a += 2
   a /= 2",6,2
,html-keyboard-response,73,262477,0.0-3.0-8.0-3.0-0.0,901,"<div><div style=""""><a style=""white-space:pre-wrap;""> while a >= 4:
   a += 2
   a /= 2</a><a style=""""></a></div></div>",3,3,1,15,"while a >= 4:
   a += 2
   a /= 2",3,3
,html-keyboard-response,74,263468,0.0-3.0-8.0-4.0-0.0,486,"<div><div style=""""><a style=""white-space:pre-wrap;""> while a >= 4:
   a += 2
   a /= 2</a><a style=""""></a></div></div>",backspace,,1,,,backspace,
,html-keyboard-response,75,265717,0.0-3.0-9.0-0.0-0.0,1732,"<div><div style=""""><a style=""white-space:pre-wrap;""> for i in [1, 2]:
   a *= 2</a><a style=""""></a></div></div>",6,6,1,16,"for i in [1, 2]:
   a *= 2",6,0
,html-keyboard-response,76,270757,0.0-3.0-9.0-1.0-0.0,4534,"<div><div style=""""><a style=""white-space:pre-wrap;""> for i in [1, 2]:
   a *= 2</a><a style=""""></a></div></div>",12,12,1,16,"for i in [1, 2]:
   a *= 2",12,1
,html-keyboard-response,77,271879,0.0-3.0-9.0-2.0-0.0,609,"<div><div style=""""><a style=""white-space:pre-wrap;""> for i in [1, 2]:
   a *= 2</a><a style=""""></a></div></div>",backspace,,1,,,backspace,
,html-keyboard-response,78,276840,0.0-3.0-10.0-0.0-0.0,4446,"<div><div style=""""><a style=""white-space:pre-wrap;""> for i in [1, 2]:
   a += 6
   a -= 4</a><a style=""""></a></div></div>",18,18,1,17,"for i in [1, 2]:
   a += 6
   a -= 4",18,0
,html-keyboard-response,79,278303,0.0-3.0-10.0-1.0-0.0,952,"<div><div style=""""><a style=""white-space:pre-wrap;""> for i in [1, 2]:
   a += 6
   a -= 4</a><a style=""""></a></div></div>",14,14,1,17,"for i in [1, 2]:
   a += 6
   a -= 4",14,1
,html-keyboard-response,80,281270,0.0-3.0-10.0-2.0-0.0,2460,"<div><div style=""""><a style=""white-space:pre-wrap;""> for i in [1, 2]:
   a += 6
   a -= 4</a><a style=""""></a></div></div>",20,20,1,17,"for i in [1, 2]:
   a += 6
   a -= 4",20,2
,html-keyboard-response,81,282476,0.0-3.0-10.0-3.0-0.0,704,"<div><div style=""""><a style=""white-space:pre-wrap;""> for i in [1, 2]:
   a += 6
   a -= 4</a><a style=""""></a></div></div>",16,16,1,17,"for i in [1, 2]:
   a += 6
   a -= 4",16,3
,html-keyboard-response,82,283450,0.0-3.0-10.0-4.0-0.0,470,"<div><div style=""""><a style=""white-space:pre-wrap;""> for i in [1, 2]:
   a += 6
   a -= 4</a><a style=""""></a></div></div>",backspace,,1,,,backspace,
,html-keyboard-response,83,288688,0.0-3.0-11.0-0.0-0.0,4728,"<div><div style=""""><a style=""white-space:pre-wrap;""> while a >= 6:
   a -= 3</a><a style=""""></a></div></div>",13,13,1,18,"while a >= 6:
   a -= 3",13,0
,html-keyboard-response,84,291026,0.0-3.0-11.0-1.0-0.0,1830,"<div><div style=""""><a style=""white-space:pre-wrap;""> while a >= 6:
   a -= 3</a><a style=""""></a></div></div>",10,10,1,18,"while a >= 6:
   a -= 3",10,1
,html-keyboard-response,85,294880,0.0-3.0-11.0-2.0-0.0,3349,"<div><div style=""""><a style=""white-space:pre-wrap;""> while a >= 6:
   a -= 3</a><a style=""""></a></div></div>",7,7,1,18,"while a >= 6:
   a -= 3",7,2
,html-keyboard-response,86,296958,0.0-3.0-11.0-3.0-0.0,1573,"<div><div style=""""><a style=""white-space:pre-wrap;""> while a >= 6:
   a -= 3</a><a style=""""></a></div></div>",4,4,1,18,"while a >= 6:
   a -= 3",4,3
,html-keyboard-response,87,298277,0.0-3.0-11.0-4.0-0.0,813,"<div><div style=""""><a style=""white-space:pre-wrap;""> while a >= 6:
   a -= 3</a><a style=""""></a></div></div>",backspace,,1,,,backspace,
,html-keyboard-response,88,300651,0.0-4.0-1.0,1862,"<p style=""font-size: 25px;"">Please press space to start the next program<br>>>>>>></p>", ,,,,,,
,html-keyboard-response,89,306270,0.0-4.0-2.0,5618,"<div><div style="" font-size:25px; color:green;""><a style=""white-space:pre-wrap;""> a = 8</a><a style=""""></a></div></div>",,null,,46,a = 8,,
,html-keyboard-response,90,310063,0.0-4.0-4.0-0.0-0.0,3280,"<div><div style=""""><a style=""white-space:pre-wrap;""> for i in [1, 2, 3]:
   a -= 2
   a += 6</a><a style=""""></a></div></div>",6,6,1,47,"for i in [1, 2, 3]:
   a -= 2
   a += 6",6,0
,html-keyboard-response,91,312917,0.0-4.0-4.0-1.0-0.0,2345,"<div><div style=""""><a style=""white-space:pre-wrap;""> for i in [1, 2, 3]:
   a -= 2
   a += 6</a><a style=""""></a></div></div>",12,12,1,47,"for i in [1, 2, 3]:
   a -= 2
   a += 6",12,1
,html-keyboard-response,92,315541,0.0-4.0-4.0-2.0-0.0,2114,"<div><div style=""""><a style=""white-space:pre-wrap;""> for i in [1, 2, 3]:
   a -= 2
   a += 6</a><a style=""""></a></div></div>",10,10,1,47,"for i in [1, 2, 3]:
   a -= 2
   a += 6",10,2
,html-keyboard-response,93,318272,0.0-4.0-4.0-3.0-0.0,2219,"<div><div style=""""><a style=""white-space:pre-wrap;""> for i in [1, 2, 3]:
   a -= 2
   a += 6</a><a style=""""></a></div></div>",16,16,1,47,"for i in [1, 2, 3]:
   a -= 2
   a += 6",16,3
,html-keyboard-response,94,320063,0.0-4.0-4.0-4.0-0.0,1279,"<div><div style=""""><a style=""white-space:pre-wrap;""> for i in [1, 2, 3]:
   a -= 2
   a += 6</a><a style=""""></a></div></div>",14,14,1,47,"for i in [1, 2, 3]:
   a -= 2
   a += 6",14,4
,html-keyboard-response,95,322103,0.0-4.0-4.0-5.0-0.0,1526,"<div><div style=""""><a style=""white-space:pre-wrap;""> for i in [1, 2, 3]:
   a -= 2
   a += 6</a><a style=""""></a></div></div>",20,20,1,47,"for i in [1, 2, 3]:
   a -= 2
   a += 6",20,5
,html-keyboard-response,96,323174,0.0-4.0-4.0-6.0-0.0,563,"<div><div style=""""><a style=""white-space:pre-wrap;""> for i in [1, 2, 3]:
   a -= 2
   a += 6</a><a style=""""></a></div></div>",backspace,,1,,,backspace,
,html-keyboard-response,97,325252,0.0-4.0-5.0-0.0-0.0,1560,"<div><div style=""""><a style=""white-space:pre-wrap;""> for i in [1, 2]:
   a /= 2</a><a style=""""></a></div></div>",10,10,1,48,"for i in [1, 2]:
   a /= 2",10,0
,html-keyboard-response,98,326221,0.0-4.0-5.0-1.0-0.0,463,"<div><div style=""""><a style=""white-space:pre-wrap;""> for i in [1, 2]:
   a /= 2</a><a style=""""></a></div></div>",5,5,1,48,"for i in [1, 2]:
   a /= 2",5,1
,html-keyboard-response,99,327073,0.0-4.0-5.0-2.0-0.0,342,"<div><div style=""""><a style=""white-space:pre-wrap;""> for i in [1, 2]:
   a /= 2</a><a style=""""></a></div></div>",backspace,,1,,,backspace,
,html-keyboard-response,100,340546,0.0-4.0-6.0-0.0-0.0,12970,"<div><div style=""""><a style=""white-space:pre-wrap;""> while a <= 15:
   a = round_up(a*1.5)</a><a style=""""></a></div></div>",8,8,1,49,"while a <= 15:
   a = round_up(a*1.5)",8,0
,html-keyboard-response,101,354888,0.0-4.0-6.0-1.0-0.0,13831,"<div><div style=""""><a style=""white-space:pre-wrap;""> while a <= 15:
   a = round_up(a*1.5)</a><a style=""""></a></div></div>",13,12,0,49,"while a <= 15:
   a = round_up(a*1.5)",12,1
,html-keyboard-response,103,366381,0.0-4.0-6.0-2.0-0.0,7469,"<div><div style=""""><a style=""white-space:pre-wrap;""> while a <= 15:
   a = round_up(a*1.5)</a><a style=""""></a></div></div>",18,18,1,49,"while a <= 15:
   a = round_up(a*1.5)",18,2
,html-keyboard-response,104,367491,0.0-4.0-6.0-3.0-0.0,594,"<div><div style=""""><a style=""white-space:pre-wrap;""> while a <= 15:
   a = round_up(a*1.5)</a><a style=""""></a></div></div>",backspace,,1,,,backspace,
,html-keyboard-response,105,373829,0.0-4.0-7.0-0.0-0.0,5821,"<div><div style=""""><a style=""white-space:pre-wrap;""> for i in [1, 2, 3, 4]:
   a = average(a,2)</a><a style=""""></a></div></div>",10,10,1,50,"for i in [1, 2, 3, 4]:
   a = average(a,2)",10,0
,html-keyboard-response,106,375905,0.0-4.0-7.0-1.0-0.0,1561,"<div><div style=""""><a style=""white-space:pre-wrap;""> for i in [1, 2, 3, 4]:
   a = average(a,2)</a><a style=""""></a></div></div>",6,6,1,50,"for i in [1, 2, 3, 4]:
   a = average(a,2)",6,1
,html-keyboard-response,107,380743,0.0-4.0-7.0-2.0-0.0,4322,"<div><div style=""""><a style=""white-space:pre-wrap;""> for i in [1, 2, 3, 4]:
   a = average(a,2)</a><a style=""""></a></div></div>",4,4,1,50,"for i in [1, 2, 3, 4]:
   a = average(a,2)",4,2
,html-keyboard-response,108,382830,0.0-4.0-7.0-3.0-0.0,1573,"<div><div style=""""><a style=""white-space:pre-wrap;""> for i in [1, 2, 3, 4]:
   a = average(a,2)</a><a style=""""></a></div></div>",3,3,1,50,"for i in [1, 2, 3, 4]:
   a = average(a,2)",3,3
,html-keyboard-response,109,384324,0.0-4.0-7.0-4.0-0.0,990,"<div><div style=""""><a style=""white-space:pre-wrap;""> for i in [1, 2, 3, 4]:
   a = average(a,2)</a><a style=""""></a></div></div>",backspace,,1,,,backspace,
,html-keyboard-response,110,386843,0.0-4.0-8.0-0.0-0.0,2003,"<div><div style=""""><a style=""white-space:pre-wrap;""> for i in [1, 2]:
   a += 7
   a /= 2</a><a style=""""></a></div></div>",10,10,1,51,"for i in [1, 2]:
   a += 7
   a /= 2",10,0
,html-keyboard-response,111,388050,0.0-4.0-8.0-1.0-0.0,695,"<div><div style=""""><a style=""white-space:pre-wrap;""> for i in [1, 2]:
   a += 7
   a /= 2</a><a style=""""></a></div></div>",5,5,1,51,"for i in [1, 2]:
   a += 7
   a /= 2",5,1
,html-keyboard-response,112,390346,0.0-4.0-8.0-2.0-0.0,1782,"<div><div style=""""><a style=""white-space:pre-wrap;""> for i in [1, 2]:
   a += 7
   a /= 2</a><a style=""""></a></div></div>",12,12,1,51,"for i in [1, 2]:
   a += 7
   a /= 2",12,2
,html-keyboard-response,113,391650,0.0-4.0-8.0-3.0-0.0,787,"<div><div style=""""><a style=""white-space:pre-wrap;""> for i in [1, 2]:
   a += 7
   a /= 2</a><a style=""""></a></div></div>",6,6,1,51,"for i in [1, 2]:
   a += 7
   a /= 2",6,3
,html-keyboard-response,114,395273,0.0-4.0-8.0-4.0-0.0,3114,"<div><div style=""""><a style=""white-space:pre-wrap;""> for i in [1, 2]:
   a += 7
   a /= 2</a><a style=""""></a></div></div>",13,,0,,,backspace,
,html-keyboard-response,115,399289,0.0-4.0-8.0-4.0-1.0-0.0,null,"<div><p style=""font-size:25px; color:green;"">end of loop<br>>>>>>></p>
						<div>Hit the ""end loop"" key to continue</div></div>",null,,,,,,
,html-keyboard-response,116,400580,0.0-4.0-8.0-4.1-0.1,1289,"<div><div style=""""><a style=""white-space:pre-wrap;""> for i in [1, 2]:
   a += 7
   a /= 2</a><a style=""""></a></div></div>",backspace,,1,,,backspace,
,html-keyboard-response,117,414383,0.0-4.0-9.0-0.0-0.0,13299,"<div><div style=""""><a style=""white-space:pre-wrap;""> while a <= 15:
   a += 3</a><a style=""""></a></div></div>",9,9,1,52,"while a <= 15:
   a += 3",9,0
,html-keyboard-response,118,416826,0.0-4.0-9.0-1.0-0.0,1930,"<div><div style=""""><a style=""white-space:pre-wrap;""> while a <= 15:
   a += 3</a><a style=""""></a></div></div>",12,12,1,52,"while a <= 15:
   a += 3",12,1
,html-keyboard-response,119,419345,0.0-4.0-9.0-2.0-0.0,2012,"<div><div style=""""><a style=""white-space:pre-wrap;""> while a <= 15:
   a += 3</a><a style=""""></a></div></div>",15,15,1,52,"while a <= 15:
   a += 3",15,2
,html-keyboard-response,120,421882,0.0-4.0-9.0-3.0-0.0,2025,"<div><div style=""""><a style=""white-space:pre-wrap;""> while a <= 15:
   a += 3</a><a style=""""></a></div></div>",18,18,1,52,"while a <= 15:
   a += 3",18,3
,html-keyboard-response,121,423114,0.0-4.0-9.0-4.0-0.0,719,"<div><div style=""""><a style=""white-space:pre-wrap;""> while a <= 15:
   a += 3</a><a style=""""></a></div></div>",backspace,,1,,,backspace,
,html-keyboard-response,122,427014,0.0-4.0-10.0-0.0-0.0,3384,"<div><div style=""""><a style=""white-space:pre-wrap;""> for i in [1, 2]:
   a /= 3
   a *= 2</a><a style=""""></a></div></div>",6,6,1,53,"for i in [1, 2]:
   a /= 3
   a *= 2",6,0
,html-keyboard-response,123,428486,0.0-4.0-10.0-1.0-0.0,959,"<div><div style=""""><a style=""white-space:pre-wrap;""> for i in [1, 2]:
   a /= 3
   a *= 2</a><a style=""""></a></div></div>",12,12,1,53,"for i in [1, 2]:
   a /= 3
   a *= 2",12,1
,html-keyboard-response,124,430440,0.0-4.0-10.0-2.0-0.0,1443,"<div><div style=""""><a style=""white-space:pre-wrap;""> for i in [1, 2]:
   a /= 3
   a *= 2</a><a style=""""></a></div></div>",4,4,1,53,"for i in [1, 2]:
   a /= 3
   a *= 2",4,2
,html-keyboard-response,125,432165,0.0-4.0-10.0-3.0-0.0,1214,"<div><div style=""""><a style=""white-space:pre-wrap;""> for i in [1, 2]:
   a /= 3
   a *= 2</a><a style=""""></a></div></div>",8,8,1,53,"for i in [1, 2]:
   a /= 3
   a *= 2",8,3
,html-keyboard-response,126,433155,0.0-4.0-10.0-4.0-0.0,482,"<div><div style=""""><a style=""white-space:pre-wrap;""> for i in [1, 2]:
   a /= 3
   a *= 2</a><a style=""""></a></div></div>",backspace,,1,,,backspace,
,html-keyboard-response,127,438711,0.0-4.0-11.0-0.0-0.0,5050,"<div><div style=""""><a style=""white-space:pre-wrap;""> for i in [1, 2, 3]:
   a *= 2
   a -= 9</a><a style=""""></a></div></div>",16,16,1,54,"for i in [1, 2, 3]:
   a *= 2
   a -= 9",16,0
,html-keyboard-response,128,441176,0.0-4.0-11.0-1.0-0.0,1958,"<div><div style=""""><a style=""white-space:pre-wrap;""> for i in [1, 2, 3]:
   a *= 2
   a -= 9</a><a style=""""></a></div></div>",7,7,1,54,"for i in [1, 2, 3]:
   a *= 2
   a -= 9",7,1
,html-keyboard-response,129,443847,0.0-4.0-11.0-2.0-0.0,2165,"<div><div style=""""><a style=""white-space:pre-wrap;""> for i in [1, 2, 3]:
   a *= 2
   a -= 9</a><a style=""""></a></div></div>",14,14,1,54,"for i in [1, 2, 3]:
   a *= 2
   a -= 9",14,2
,html-keyboard-response,130,447457,0.0-4.0-11.0-3.0-0.0,3093,"<div><div style=""""><a style=""white-space:pre-wrap;""> for i in [1, 2, 3]:
   a *= 2
   a -= 9</a><a style=""""></a></div></div>",5,5,1,54,"for i in [1, 2, 3]:
   a *= 2
   a -= 9",5,3
,html-keyboard-response,131,449805,0.0-4.0-11.0-4.0-0.0,1838,"<div><div style=""""><a style=""white-space:pre-wrap;""> for i in [1, 2, 3]:
   a *= 2
   a -= 9</a><a style=""""></a></div></div>",10,10,1,54,"for i in [1, 2, 3]:
   a *= 2
   a -= 9",10,4
,html-keyboard-response,132,450724,0.0-4.0-11.0-5.0-0.0,403,"<div><div style=""""><a style=""white-space:pre-wrap;""> for i in [1, 2, 3]:
   a *= 2
   a -= 9</a><a style=""""></a></div></div>",1,1,1,54,"for i in [1, 2, 3]:
   a *= 2
   a -= 9",1,5
,html-keyboard-response,133,452130,0.0-4.0-11.0-6.0-0.0,891,"<div><div style=""""><a style=""white-space:pre-wrap;""> for i in [1, 2, 3]:
   a *= 2
   a -= 9</a><a style=""""></a></div></div>",backspace,,1,,,backspace,
,html-keyboard-response,134,524788,0.0-5.0-0.0-0.0,72140,"<p style=""position:absolute; top:30%; font-size:25px; color:green;"" >Take a short break now</p>", ,,,,,,
,html-keyboard-response,135,531221,0.0-5.0-1.0,6431,"<p style=""font-size: 25px;"">Please press space to start the next program<br>>>>>>></p>", ,,,,,,
,html-keyboard-response,136,533456,0.0-5.0-2.0,2233,"<div><div style="" font-size:25px; color:green;""><a style=""white-space:pre-wrap;""> a = 11</a><a style=""""></a></div></div>",,null,,55,a = 11,,
,html-keyboard-response,137,536143,0.0-5.0-4.0-0.0-0.0,2174,"<div><div style=""""><a style=""white-space:pre-wrap;""> for i in [1, 2]:
   a += 4
   a /= 3</a><a style=""""></a></div></div>",15,15,1,56,"for i in [1, 2]:
   a += 4
   a /= 3",15,0
,html-keyboard-response,138,537203,0.0-5.0-4.0-1.0-0.0,548,"<div><div style=""""><a style=""white-space:pre-wrap;""> for i in [1, 2]:
   a += 4
   a /= 3</a><a style=""""></a></div></div>",5,5,1,56,"for i in [1, 2]:
   a += 4
   a /= 3",5,1
,html-keyboard-response,139,538329,0.0-5.0-4.0-2.0-0.0,614,"<div><div style=""""><a style=""white-space:pre-wrap;""> for i in [1, 2]:
   a += 4
   a /= 3</a><a style=""""></a></div></div>",9,9,1,56,"for i in [1, 2]:
   a += 4
   a /= 3",9,2
,html-keyboard-response,140,539604,0.0-5.0-4.0-3.0-0.0,761,"<div><div style=""""><a style=""white-space:pre-wrap;""> for i in [1, 2]:
   a += 4
   a /= 3</a><a style=""""></a></div></div>",3,3,1,56,"for i in [1, 2]:
   a += 4
   a /= 3",3,3
,html-keyboard-response,141,540573,0.0-5.0-4.0-4.0-0.0,466,"<div><div style=""""><a style=""white-space:pre-wrap;""> for i in [1, 2]:
   a += 4
   a /= 3</a><a style=""""></a></div></div>",backspace,,1,,,backspace,
,html-keyboard-response,142,551831,0.0-5.0-5.0-0.0-0.0,10741,"<div><div style=""""><a style=""white-space:pre-wrap;""> while a <= 11:
   a = round_down(a*2.5)</a><a style=""""></a></div></div>",7,7,1,57,"while a <= 11:
   a = round_down(a*2.5)",7,0
,html-keyboard-response,143,563300,0.0-5.0-5.0-1.0-0.0,10957,"<div><div style=""""><a style=""white-space:pre-wrap;""> while a <= 11:
   a = round_down(a*2.5)</a><a style=""""></a></div></div>",10,17,0,57,"while a <= 11:
   a = round_down(a*2.5)",17,1
,html-keyboard-response,145,568912,0.0-5.0-5.0-2.0-0.0,1589,"<div><div style=""""><a style=""white-space:pre-wrap;""> while a <= 11:
   a = round_down(a*2.5)</a><a style=""""></a></div></div>",backspace,,1,,,backspace,
,html-keyboard-response,146,573070,0.0-5.0-6.0-0.0-0.0,3655,"<div><div style=""""><a style=""white-space:pre-wrap;""> while a >= 3:
   a = average(a,1)</a><a style=""""></a></div></div>",9,9,1,58,"while a >= 3:
   a = average(a,1)",9,0
,html-keyboard-response,147,574601,0.0-5.0-6.0-1.0-0.0,1025,"<div><div style=""""><a style=""white-space:pre-wrap;""> while a >= 3:
   a = average(a,1)</a><a style=""""></a></div></div>",5,5,1,58,"while a >= 3:
   a = average(a,1)",5,1
,html-keyboard-response,148,578509,0.0-5.0-6.0-2.0-0.0,3405,"<div><div style=""""><a style=""white-space:pre-wrap;""> while a >= 3:
   a = average(a,1)</a><a style=""""></a></div></div>",3,3,1,58,"while a >= 3:
   a = average(a,1)",3,2
,html-keyboard-response,149,581006,0.0-5.0-6.0-3.0-0.0,1993,"<div><div style=""""><a style=""white-space:pre-wrap;""> while a >= 3:
   a = average(a,1)</a><a style=""""></a></div></div>",2,2,1,58,"while a >= 3:
   a = average(a,1)",2,3
,html-keyboard-response,150,581971,0.0-5.0-6.0-4.0-0.0,459,"<div><div style=""""><a style=""white-space:pre-wrap;""> while a >= 3:
   a = average(a,1)</a><a style=""""></a></div></div>",backspace,,1,,,backspace,
,html-keyboard-response,151,584333,0.0-5.0-7.0-0.0-0.0,1847,"<div><div style=""""><a style=""white-space:pre-wrap;""> while a <= 10:
   a *= 3
   a -= 1</a><a style=""""></a></div></div>",6,6,1,59,"while a <= 10:
   a *= 3
   a -= 1",6,0
,html-keyboard-response,152,586747,0.0-5.0-7.0-1.0-0.0,1909,"<div><div style=""""><a style=""white-space:pre-wrap;""> while a <= 10:
   a *= 3
   a -= 1</a><a style=""""></a></div></div>",5,5,1,59,"while a <= 10:
   a *= 3
   a -= 1",5,1
,html-keyboard-response,153,589272,0.0-5.0-7.0-2.0-0.0,2007,"<div><div style=""""><a style=""white-space:pre-wrap;""> while a <= 10:
   a *= 3
   a -= 1</a><a style=""""></a></div></div>",15,15,1,59,"while a <= 10:
   a *= 3
   a -= 1",15,2
,html-keyboard-response,154,590222,0.0-5.0-7.0-3.0-0.0,443,"<div><div style=""""><a style=""white-space:pre-wrap;""> while a <= 10:
   a *= 3
   a -= 1</a><a style=""""></a></div></div>",14,14,1,59,"while a <= 10:
   a *= 3
   a -= 1",14,3
,html-keyboard-response,155,592762,0.0-5.0-7.0-4.0-0.0,2028,"<div><div style=""""><a style=""white-space:pre-wrap;""> while a <= 10:
   a *= 3
   a -= 1</a><a style=""""></a></div></div>",backspace,,1,,,backspace,
,html-keyboard-response,156,596490,0.0-5.0-8.0-0.0-0.0,3216,"<div><div style=""""><a style=""white-space:pre-wrap;""> for i in [1, 2, 3]:
   a -= 5
   a += 1</a><a style=""""></a></div></div>",9,9,1,60,"for i in [1, 2, 3]:
   a -= 5
   a += 1",9,0
,html-keyboard-response,157,597681,0.0-5.0-8.0-1.0-0.0,684,"<div><div style=""""><a style=""white-space:pre-wrap;""> for i in [1, 2, 3]:
   a -= 5
   a += 1</a><a style=""""></a></div></div>",10,10,1,60,"for i in [1, 2, 3]:
   a -= 5
   a += 1",10,1
,html-keyboard-response,158,600533,0.0-5.0-8.0-2.0-0.0,2345,"<div><div style=""""><a style=""white-space:pre-wrap;""> for i in [1, 2, 3]:
   a -= 5
   a += 1</a><a style=""""></a></div></div>",5,5,1,60,"for i in [1, 2, 3]:
   a -= 5
   a += 1",5,2
,html-keyboard-response,159,602164,0.0-5.0-8.0-3.0-0.0,1115,"<div><div style=""""><a style=""white-space:pre-wrap;""> for i in [1, 2, 3]:
   a -= 5
   a += 1</a><a style=""""></a></div></div>",6,6,1,60,"for i in [1, 2, 3]:
   a -= 5
   a += 1",6,3
,html-keyboard-response,160,605885,0.0-5.0-8.0-4.0-0.0,3215,"<div><div style=""""><a style=""white-space:pre-wrap;""> for i in [1, 2, 3]:
   a -= 5
   a += 1</a><a style=""""></a></div></div>",1,1,1,60,"for i in [1, 2, 3]:
   a -= 5
   a += 1",1,4
,html-keyboard-response,161,606893,0.0-5.0-8.0-5.0-0.0,497,"<div><div style=""""><a style=""white-space:pre-wrap;""> for i in [1, 2, 3]:
   a -= 5
   a += 1</a><a style=""""></a></div></div>",2,2,1,60,"for i in [1, 2, 3]:
   a -= 5
   a += 1",2,5
,html-keyboard-response,162,607918,0.0-5.0-8.0-6.0-0.0,521,"<div><div style=""""><a style=""white-space:pre-wrap;""> for i in [1, 2, 3]:
   a -= 5
   a += 1</a><a style=""""></a></div></div>",backspace,,1,,,backspace,
,html-keyboard-response,163,610467,0.0-5.0-9.0-0.0-0.0,2036,"<div><div style=""""><a style=""white-space:pre-wrap;""> for i in [1, 2]:
   a *= 3</a><a style=""""></a></div></div>",6,6,1,61,"for i in [1, 2]:
   a *= 3",6,0
,html-keyboard-response,164,613502,0.0-5.0-9.0-1.0-0.0,2523,"<div><div style=""""><a style=""white-space:pre-wrap;""> for i in [1, 2]:
   a *= 3</a><a style=""""></a></div></div>",18,18,1,61,"for i in [1, 2]:
   a *= 3",18,1
,html-keyboard-response,165,614540,0.0-5.0-9.0-2.0-0.0,533,"<div><div style=""""><a style=""white-space:pre-wrap;""> for i in [1, 2]:
   a *= 3</a><a style=""""></a></div></div>",backspace,,1,,,backspace,
,html-keyboard-response,166,616621,0.0-5.0-10.0-0.0-0.0,1576,"<div><div style=""""><a style=""white-space:pre-wrap;""> for i in [1, 2]:
   a /= 3
   a *= 2</a><a style=""""></a></div></div>",6,6,1,62,"for i in [1, 2]:
   a /= 3
   a *= 2",6,0
,html-keyboard-response,167,620867,0.0-5.0-10.0-1.0-0.0,3744,"<div><div style=""""><a style=""white-space:pre-wrap;""> for i in [1, 2]:
   a /= 3
   a *= 2</a><a style=""""></a></div></div>",12,12,1,62,"for i in [1, 2]:
   a /= 3
   a *= 2",12,1
,html-keyboard-response,168,623373,0.0-5.0-10.0-2.0-0.0,1994,"<div><div style=""""><a style=""white-space:pre-wrap;""> for i in [1, 2]:
   a /= 3
   a *= 2</a><a style=""""></a></div></div>",4,4,1,62,"for i in [1, 2]:
   a /= 3
   a *= 2",4,2
,html-keyboard-response,169,624553,0.0-5.0-10.0-3.0-0.0,676,"<div><div style=""""><a style=""white-space:pre-wrap;""> for i in [1, 2]:
   a /= 3
   a *= 2</a><a style=""""></a></div></div>",8,8,1,62,"for i in [1, 2]:
   a /= 3
   a *= 2",8,3
,html-keyboard-response,170,625632,0.0-5.0-10.0-4.0-0.0,574,"<div><div style=""""><a style=""white-space:pre-wrap;""> for i in [1, 2]:
   a /= 3
   a *= 2</a><a style=""""></a></div></div>",backspace,,1,,,backspace,
,html-keyboard-response,171,627799,0.0-5.0-11.0-0.0-0.0,1661,"<div><div style=""""><a style=""white-space:pre-wrap;""> while a <= 17:
   a += 4</a><a style=""""></a></div></div>",12,12,1,63,"while a <= 17:
   a += 4",12,0
,html-keyboard-response,172,631178,0.0-5.0-11.0-1.0-0.0,2873,"<div><div style=""""><a style=""white-space:pre-wrap;""> while a <= 17:
   a += 4</a><a style=""""></a></div></div>",16,16,1,63,"while a <= 17:
   a += 4",16,1
,html-keyboard-response,173,632764,0.0-5.0-11.0-2.0-0.0,1078,"<div><div style=""""><a style=""white-space:pre-wrap;""> while a <= 17:
   a += 4</a><a style=""""></a></div></div>",20,20,1,63,"while a <= 17:
   a += 4",20,2
,html-keyboard-response,174,633842,0.0-5.0-11.0-3.0-0.0,562,"<div><div style=""""><a style=""white-space:pre-wrap;""> while a <= 17:
   a += 4</a><a style=""""></a></div></div>",backspace,,1,,,backspace,
,html-keyboard-response,175,638828,0.0-6.0-1.0,4473,"<p style=""font-size: 25px;"">Please press space to start the next program<br>>>>>>></p>", ,,,,,,
,html-keyboard-response,176,643685,0.0-6.0-2.0,4855,"<div><div style="" font-size:25px; color:green;""><a style=""white-space:pre-wrap;""> a = 18</a><a style=""""></a></div></div>",,null,,28,a = 18,,
,html-keyboard-response,177,646242,0.0-6.0-4.0-0.0-0.0,2049,"<div><div style=""""><a style=""white-space:pre-wrap;""> while a >= 10:
   a /= 3
   a *= 2</a><a style=""""></a></div></div>",6,6,1,29,"while a >= 10:
   a /= 3
   a *= 2",6,0
,html-keyboard-response,178,649091,0.0-6.0-4.0-1.0-0.0,2344,"<div><div style=""""><a style=""white-space:pre-wrap;""> while a >= 10:
   a /= 3
   a *= 2</a><a style=""""></a></div></div>",12,12,1,29,"while a >= 10:
   a /= 3
   a *= 2",12,1
,html-keyboard-response,179,650809,0.0-6.0-4.0-2.0-0.0,1208,"<div><div style=""""><a style=""white-space:pre-wrap;""> while a >= 10:
   a /= 3
   a *= 2</a><a style=""""></a></div></div>",4,4,1,29,"while a >= 10:
   a /= 3
   a *= 2",4,2
,html-keyboard-response,180,652536,0.0-6.0-4.0-3.0-0.0,1214,"<div><div style=""""><a style=""white-space:pre-wrap;""> while a >= 10:
   a /= 3
   a *= 2</a><a style=""""></a></div></div>",8,8,1,29,"while a >= 10:
   a /= 3
   a *= 2",8,3
,html-keyboard-response,181,653878,0.0-6.0-4.0-4.0-0.0,825,"<div><div style=""""><a style=""white-space:pre-wrap;""> while a >= 10:
   a /= 3
   a *= 2</a><a style=""""></a></div></div>",backspace,,1,,,backspace,
,html-keyboard-response,182,658052,0.0-6.0-5.0-0.0-0.0,3669,"<div><div style=""""><a style=""white-space:pre-wrap;""> for i in [1, 2, 3]:
   a /= 2</a><a style=""""></a></div></div>",4,4,1,30,"for i in [1, 2, 3]:
   a /= 2",4,0
,html-keyboard-response,183,660901,0.0-6.0-5.0-1.0-0.0,2345,"<div><div style=""""><a style=""white-space:pre-wrap;""> for i in [1, 2, 3]:
   a /= 2</a><a style=""""></a></div></div>",2,2,1,30,"for i in [1, 2, 3]:
   a /= 2",2,1
,html-keyboard-response,184,661843,0.0-6.0-5.0-2.0-0.0,425,"<div><div style=""""><a style=""white-space:pre-wrap;""> for i in [1, 2, 3]:
   a /= 2</a><a style=""""></a></div></div>",1,1,1,30,"for i in [1, 2, 3]:
   a /= 2",1,2
,html-keyboard-response,185,662929,0.0-6.0-5.0-3.0-0.0,570,"<div><div style=""""><a style=""white-space:pre-wrap;""> for i in [1, 2, 3]:
   a /= 2</a><a style=""""></a></div></div>",backspace,,1,,,backspace,
,html-keyboard-response,186,664720,0.0-6.0-6.0-0.0-0.0,1281,"<div><div style=""""><a style=""white-space:pre-wrap;""> for i in [1, 2, 3, 4]:
   a += 2</a><a style=""""></a></div></div>",3,3,1,31,"for i in [1, 2, 3, 4]:
   a += 2",3,0
,html-keyboard-response,187,666626,0.0-6.0-6.0-1.0-0.0,1401,"<div><div style=""""><a style=""white-space:pre-wrap;""> for i in [1, 2, 3, 4]:
   a += 2</a><a style=""""></a></div></div>",5,5,1,31,"for i in [1, 2, 3, 4]:
   a += 2",5,1
,html-keyboard-response,188,668517,0.0-6.0-6.0-2.0-0.0,1382,"<div><div style=""""><a style=""white-space:pre-wrap;""> for i in [1, 2, 3, 4]:
   a += 2</a><a style=""""></a></div></div>",7,7,1,31,"for i in [1, 2, 3, 4]:
   a += 2",7,2
,html-keyboard-response,189,670432,0.0-6.0-6.0-3.0-0.0,1399,"<div><div style=""""><a style=""white-space:pre-wrap;""> for i in [1, 2, 3, 4]:
   a += 2</a><a style=""""></a></div></div>",9,9,1,31,"for i in [1, 2, 3, 4]:
   a += 2",9,3
,html-keyboard-response,190,671507,0.0-6.0-6.0-4.0-0.0,572,"<div><div style=""""><a style=""white-space:pre-wrap;""> for i in [1, 2, 3, 4]:
   a += 2</a><a style=""""></a></div></div>",backspace,,1,,,backspace,
,html-keyboard-response,191,673762,0.0-6.0-7.0-0.0-0.0,1747,"<div><div style=""""><a style=""white-space:pre-wrap;""> for i in [1, 2]:
   a += 9
   a /= 3</a><a style=""""></a></div></div>",18,18,1,32,"for i in [1, 2]:
   a += 9
   a /= 3",18,0
,html-keyboard-response,192,676608,0.0-6.0-7.0-1.0-0.0,2330,"<div><div style=""""><a style=""white-space:pre-wrap;""> for i in [1, 2]:
   a += 9
   a /= 3</a><a style=""""></a></div></div>",6,6,1,32,"for i in [1, 2]:
   a += 9
   a /= 3",6,1
,html-keyboard-response,193,678959,0.0-6.0-7.0-2.0-0.0,1842,"<div><div style=""""><a style=""white-space:pre-wrap;""> for i in [1, 2]:
   a += 9
   a /= 3</a><a style=""""></a></div></div>",15,15,1,32,"for i in [1, 2]:
   a += 9
   a /= 3",15,2
,html-keyboard-response,194,681045,0.0-6.0-7.0-3.0-0.0,1572,"<div><div style=""""><a style=""white-space:pre-wrap;""> for i in [1, 2]:
   a += 9
   a /= 3</a><a style=""""></a></div></div>",5,5,1,32,"for i in [1, 2]:
   a += 9
   a /= 3",5,3
,html-keyboard-response,195,682250,0.0-6.0-7.0-4.0-0.0,698,"<div><div style=""""><a style=""white-space:pre-wrap;""> for i in [1, 2]:
   a += 9
   a /= 3</a><a style=""""></a></div></div>",backspace,,1,,,backspace,
,html-keyboard-response,196,687272,0.0-6.0-8.0-0.0-0.0,4514,"<div><div style=""""><a style=""white-space:pre-wrap;""> for i in [1, 2, 3]:
   a = round_down(a*1.5)</a><a style=""""></a></div></div>",7,7,1,33,"for i in [1, 2, 3]:
   a = round_down(a*1.5)",7,0
,html-keyboard-response,197,709020,0.0-6.0-8.0-1.0-0.0,21243,"<div><div style=""""><a style=""white-space:pre-wrap;""> for i in [1, 2, 3]:
   a = round_down(a*1.5)</a><a style=""""></a></div></div>",11,10,0,33,"for i in [1, 2, 3]:
   a = round_down(a*1.5)",10,1
,html-keyboard-response,199,716403,0.0-6.0-8.0-2.0-0.0,3371,"<div><div style=""""><a style=""white-space:pre-wrap;""> for i in [1, 2, 3]:
   a = round_down(a*1.5)</a><a style=""""></a></div></div>",15,15,1,33,"for i in [1, 2, 3]:
   a = round_down(a*1.5)",15,2
,html-keyboard-response,200,717782,0.0-6.0-8.0-3.0-0.0,865,"<div><div style=""""><a style=""white-space:pre-wrap;""> for i in [1, 2, 3]:
   a = round_down(a*1.5)</a><a style=""""></a></div></div>",backspace,,1,,,backspace,
,html-keyboard-response,201,724640,0.0-6.0-9.0-0.0-0.0,6351,"<div><div style=""""><a style=""white-space:pre-wrap;""> while a >= 8:
   a = average(a,3)</a><a style=""""></a></div></div>",9,9,1,34,"while a >= 8:
   a = average(a,3)",9,0
,html-keyboard-response,202,732376,0.0-6.0-9.0-1.0-0.0,7225,"<div><div style=""""><a style=""white-space:pre-wrap;""> while a >= 8:
   a = average(a,3)</a><a style=""""></a></div></div>",6,6,1,34,"while a >= 8:
   a = average(a,3)",6,1
,html-keyboard-response,203,733698,0.0-6.0-9.0-2.0-0.0,805,"<div><div style=""""><a style=""white-space:pre-wrap;""> while a >= 8:
   a = average(a,3)</a><a style=""""></a></div></div>",backspace,,1,,,backspace,
,html-keyboard-response,204,736260,0.0-6.0-10.0-0.0-0.0,2051,"<div><div style=""""><a style=""white-space:pre-wrap;""> while a <= 11:
   a *= 2
   a -= 5</a><a style=""""></a></div></div>",12,12,1,35,"while a <= 11:
   a *= 2
   a -= 5",12,0
,html-keyboard-response,205,737587,0.0-6.0-10.0-1.0-0.0,817,"<div><div style=""""><a style=""white-space:pre-wrap;""> while a <= 11:
   a *= 2
   a -= 5</a><a style=""""></a></div></div>",7,7,1,35,"while a <= 11:
   a *= 2
   a -= 5",7,1
,html-keyboard-response,206,740068,0.0-6.0-10.0-2.0-0.0,1973,"<div><div style=""""><a style=""white-space:pre-wrap;""> while a <= 11:
   a *= 2
   a -= 5</a><a style=""""></a></div></div>",14,14,1,35,"while a <= 11:
   a *= 2
   a -= 5",14,2
,html-keyboard-response,207,741809,0.0-6.0-10.0-3.0-0.0,1233,"<div><div style=""""><a style=""white-space:pre-wrap;""> while a <= 11:
   a *= 2
   a -= 5</a><a style=""""></a></div></div>",9,9,1,35,"while a <= 11:
   a *= 2
   a -= 5",9,3
,html-keyboard-response,208,742856,0.0-6.0-10.0-4.0-0.0,531,"<div><div style=""""><a style=""white-space:pre-wrap;""> while a <= 11:
   a *= 2
   a -= 5</a><a style=""""></a></div></div>",backspace,18,0,35,"while a <= 11:
   a *= 2
   a -= 5",18,4
,html-keyboard-response,210,750234,0.0-6.0-10.0-5.0-0.0,3350,"<div><div style=""""><a style=""white-space:pre-wrap;""> while a <= 11:
   a *= 2
   a -= 5</a><a style=""""></a></div></div>",13,13,1,35,"while a <= 11:
   a *= 2
   a -= 5",13,5
,html-keyboard-response,211,751873,0.0-6.0-10.0-6.0-0.0,1124,"<div><div style=""""><a style=""white-space:pre-wrap;""> while a <= 11:
   a *= 2
   a -= 5</a><a style=""""></a></div></div>",backspace,,1,,,backspace,
,html-keyboard-response,212,757691,0.0-6.0-11.0-0.0-0.0,5314,"<div><div style=""""><a style=""white-space:pre-wrap;""> for i in [1, 2, 3]:
   a += 4
   a -= 7</a><a style=""""></a></div></div>",17,17,1,36,"for i in [1, 2, 3]:
   a += 4
   a -= 7",17,0
,html-keyboard-response,213,758668,0.0-6.0-11.0-1.0-0.0,471,"<div><div style=""""><a style=""white-space:pre-wrap;""> for i in [1, 2, 3]:
   a += 4
   a -= 7</a><a style=""""></a></div></div>",10,10,1,36,"for i in [1, 2, 3]:
   a += 4
   a -= 7",10,1
,html-keyboard-response,214,760654,0.0-6.0-11.0-2.0-0.0,1470,"<div><div style=""""><a style=""white-space:pre-wrap;""> for i in [1, 2, 3]:
   a += 4
   a -= 7</a><a style=""""></a></div></div>",14,14,1,36,"for i in [1, 2, 3]:
   a += 4
   a -= 7",14,2
,html-keyboard-response,215,762823,0.0-6.0-11.0-3.0-0.0,1654,"<div><div style=""""><a style=""white-space:pre-wrap;""> for i in [1, 2, 3]:
   a += 4
   a -= 7</a><a style=""""></a></div></div>",7,7,1,36,"for i in [1, 2, 3]:
   a += 4
   a -= 7",7,3
,html-keyboard-response,216,764231,0.0-6.0-11.0-4.0-0.0,896,"<div><div style=""""><a style=""white-space:pre-wrap;""> for i in [1, 2, 3]:
   a += 4
   a -= 7</a><a style=""""></a></div></div>",11,11,1,36,"for i in [1, 2, 3]:
   a += 4
   a -= 7",11,4
,html-keyboard-response,217,766694,0.0-6.0-11.0-5.0-0.0,1950,"<div><div style=""""><a style=""white-space:pre-wrap;""> for i in [1, 2, 3]:
   a += 4
   a -= 7</a><a style=""""></a></div></div>",4,4,1,36,"for i in [1, 2, 3]:
   a += 4
   a -= 7",4,5
,html-keyboard-response,218,767839,0.0-6.0-11.0-6.0-0.0,633,"<div><div style=""""><a style=""white-space:pre-wrap;""> for i in [1, 2, 3]:
   a += 4
   a -= 7</a><a style=""""></a></div></div>",backspace,,1,,,backspace,
,html-keyboard-response,219,826246,0.0-7.0-0.0-0.0,57897,"<p style=""position:absolute; top:30%; font-size:25px; color:green;"" >Take a short break now</p>", ,,,,,,
,html-keyboard-response,220,828094,0.0-7.0-1.0,1847,"<p style=""font-size: 25px;"">Please press space to start the next program<br>>>>>>></p>", ,,,,,,
,html-keyboard-response,221,832122,0.0-7.0-2.0,4027,"<div><div style="" font-size:25px; color:green;""><a style=""white-space:pre-wrap;""> a = 9</a><a style=""""></a></div></div>",,null,,100,a = 9,,
,html-keyboard-response,222,836673,0.0-7.0-4.0-0.0-0.0,4038,"<div><div style=""""><a style=""white-space:pre-wrap;""> while a >= 2:
   a /= 3</a><a style=""""></a></div></div>",3,3,1,101,"while a >= 2:
   a /= 3",3,0
,html-keyboard-response,223,838048,0.0-7.0-4.0-1.0-0.0,871,"<div><div style=""""><a style=""white-space:pre-wrap;""> while a >= 2:
   a /= 3</a><a style=""""></a></div></div>",1,1,1,101,"while a >= 2:
   a /= 3",1,1
,html-keyboard-response,224,839065,0.0-7.0-4.0-2.0-0.0,513,"<div><div style=""""><a style=""white-space:pre-wrap;""> while a >= 2:
   a /= 3</a><a style=""""></a></div></div>",backspace,,1,,,backspace,
,html-keyboard-response,225,841526,0.0-7.0-5.0-0.0-0.0,1945,"<div><div style=""""><a style=""white-space:pre-wrap;""> while a <= 16:
   a += 6</a><a style=""""></a></div></div>",7,7,1,102,"while a <= 16:
   a += 6",7,0
,html-keyboard-response,226,843474,0.0-7.0-5.0-1.0-0.0,1437,"<div><div style=""""><a style=""white-space:pre-wrap;""> while a <= 16:
   a += 6</a><a style=""""></a></div></div>",13,13,1,102,"while a <= 16:
   a += 6",13,1
,html-keyboard-response,227,847586,0.0-7.0-5.0-2.0-0.0,3607,"<div><div style=""""><a style=""white-space:pre-wrap;""> while a <= 16:
   a += 6</a><a style=""""></a></div></div>",18,19,0,102,"while a <= 16:
   a += 6",19,2
,html-keyboard-response,229,852937,0.0-7.0-5.0-3.0-0.0,1338,"<div><div style=""""><a style=""white-space:pre-wrap;""> while a <= 16:
   a += 6</a><a style=""""></a></div></div>",backspace,,1,,,backspace,
,html-keyboard-response,230,855387,0.0-7.0-6.0-0.0-0.0,1935,"<div><div style=""""><a style=""white-space:pre-wrap;""> for i in [1, 2]:
   a += 1
   a -= 8</a><a style=""""></a></div></div>",20,20,1,103,"for i in [1, 2]:
   a += 1
   a -= 8",20,0
,html-keyboard-response,231,856575,0.0-7.0-6.0-1.0-0.0,671,"<div><div style=""""><a style=""white-space:pre-wrap;""> for i in [1, 2]:
   a += 1
   a -= 8</a><a style=""""></a></div></div>",12,12,1,103,"for i in [1, 2]:
   a += 1
   a -= 8",12,1
,html-keyboard-response,232,859488,0.0-7.0-6.0-2.0-0.0,2400,"<div><div style=""""><a style=""white-space:pre-wrap;""> for i in [1, 2]:
   a += 1
   a -= 8</a><a style=""""></a></div></div>",13,13,1,103,"for i in [1, 2]:
   a += 1
   a -= 8",13,2
,html-keyboard-response,233,865576,0.0-7.0-6.0-3.0-0.0,5572,"<div><div style=""""><a style=""white-space:pre-wrap;""> for i in [1, 2]:
   a += 1
   a -= 8</a><a style=""""></a></div></div>",5,5,1,103,"for i in [1, 2]:
   a += 1
   a -= 8",5,3
,html-keyboard-response,234,866961,0.0-7.0-6.0-4.0-0.0,877,"<div><div style=""""><a style=""white-space:pre-wrap;""> for i in [1, 2]:
   a += 1
   a -= 8</a><a style=""""></a></div></div>",backspace,,1,,,backspace,
,html-keyboard-response,235,869304,0.0-7.0-7.0-0.0-0.0,1834,"<div><div style=""""><a style=""white-space:pre-wrap;""> for i in [1, 2]:
   a *= 3
   a -= 9</a><a style=""""></a></div></div>",15,15,1,104,"for i in [1, 2]:
   a *= 3
   a -= 9",15,0
,html-keyboard-response,236,871587,0.0-7.0-7.0-1.0-0.0,1777,"<div><div style=""""><a style=""white-space:pre-wrap;""> for i in [1, 2]:
   a *= 3
   a -= 9</a><a style=""""></a></div></div>",6,6,1,104,"for i in [1, 2]:
   a *= 3
   a -= 9",6,1
,html-keyboard-response,237,873918,0.0-7.0-7.0-2.0-0.0,1819,"<div><div style=""""><a style=""white-space:pre-wrap;""> for i in [1, 2]:
   a *= 3
   a -= 9</a><a style=""""></a></div></div>",18,18,1,104,"for i in [1, 2]:
   a *= 3
   a -= 9",18,2
,html-keyboard-response,238,875749,0.0-7.0-7.0-3.0-0.0,1324,"<div><div style=""""><a style=""white-space:pre-wrap;""> for i in [1, 2]:
   a *= 3
   a -= 9</a><a style=""""></a></div></div>",9,9,1,104,"for i in [1, 2]:
   a *= 3
   a -= 9",9,3
,html-keyboard-response,239,877447,0.0-7.0-7.0-4.0-0.0,1192,"<div><div style=""""><a style=""white-space:pre-wrap;""> for i in [1, 2]:
   a *= 3
   a -= 9</a><a style=""""></a></div></div>",backspace,,1,,,backspace,
,html-keyboard-response,240,880468,0.0-7.0-8.0-0.0-0.0,2511,"<div><div style=""""><a style=""white-space:pre-wrap;""> while a >= 3:
   a = average(a, 1)</a><a style=""""></a></div></div>",5,5,1,105,"while a >= 3:
   a = average(a, 1)",5,0
,html-keyboard-response,241,883439,0.0-7.0-8.0-1.0-0.0,2463,"<div><div style=""""><a style=""white-space:pre-wrap;""> while a >= 3:
   a = average(a, 1)</a><a style=""""></a></div></div>",3,3,1,105,"while a >= 3:
   a = average(a, 1)",3,1
,html-keyboard-response,242,886468,0.0-7.0-8.0-2.0-0.0,2514,"<div><div style=""""><a style=""white-space:pre-wrap;""> while a >= 3:
   a = average(a, 1)</a><a style=""""></a></div></div>",2,2,1,105,"while a >= 3:
   a = average(a, 1)",2,2
,html-keyboard-response,243,888168,0.0-7.0-8.0-3.0-0.0,1189,"<div><div style=""""><a style=""white-space:pre-wrap;""> while a >= 3:
   a = average(a, 1)</a><a style=""""></a></div></div>",backspace,,1,,,backspace,
,html-keyboard-response,244,890929,0.0-7.0-9.0-0.0-0.0,2244,"<div><div style=""""><a style=""white-space:pre-wrap;""> for i in [1, 2]:
   a -= 1
   a *= 5</a><a style=""""></a></div></div>",1,1,1,106,"for i in [1, 2]:
   a -= 1
   a *= 5",1,0
,html-keyboard-response,245,892029,0.0-7.0-9.0-1.0-0.0,592,"<div><div style=""""><a style=""white-space:pre-wrap;""> for i in [1, 2]:
   a -= 1
   a *= 5</a><a style=""""></a></div></div>",5,5,1,106,"for i in [1, 2]:
   a -= 1
   a *= 5",5,1
,html-keyboard-response,246,893404,0.0-7.0-9.0-2.0-0.0,869,"<div><div style=""""><a style=""white-space:pre-wrap;""> for i in [1, 2]:
   a -= 1
   a *= 5</a><a style=""""></a></div></div>",4,4,1,106,"for i in [1, 2]:
   a -= 1
   a *= 5",4,2
,html-keyboard-response,247,894696,0.0-7.0-9.0-3.0-0.0,784,"<div><div style=""""><a style=""white-space:pre-wrap;""> for i in [1, 2]:
   a -= 1
   a *= 5</a><a style=""""></a></div></div>",20,20,1,106,"for i in [1, 2]:
   a -= 1
   a *= 5",20,3
,html-keyboard-response,248,896234,0.0-7.0-9.0-4.0-0.0,1023,"<div><div style=""""><a style=""white-space:pre-wrap;""> for i in [1, 2]:
   a -= 1
   a *= 5</a><a style=""""></a></div></div>",backspace,,1,,,backspace,
,html-keyboard-response,249,898817,0.0-7.0-10.0-0.0-0.0,2076,"<div><div style=""""><a style=""white-space:pre-wrap;""> for i in [1, 2, 3]:
   a -= 3</a><a style=""""></a></div></div>",17,17,1,107,"for i in [1, 2, 3]:
   a -= 3",17,0
,html-keyboard-response,250,900388,0.0-7.0-10.0-1.0-0.0,1058,"<div><div style=""""><a style=""white-space:pre-wrap;""> for i in [1, 2, 3]:
   a -= 3</a><a style=""""></a></div></div>",14,14,1,107,"for i in [1, 2, 3]:
   a -= 3",14,1
,html-keyboard-response,251,901555,0.0-7.0-10.0-2.0-0.0,662,"<div><div style=""""><a style=""white-space:pre-wrap;""> for i in [1, 2, 3]:
   a -= 3</a><a style=""""></a></div></div>",11,11,1,107,"for i in [1, 2, 3]:
   a -= 3",11,2
,html-keyboard-response,252,902927,0.0-7.0-10.0-3.0-0.0,865,"<div><div style=""""><a style=""white-space:pre-wrap;""> for i in [1, 2, 3]:
   a -= 3</a><a style=""""></a></div></div>",backspace,,1,,,backspace,
,html-keyboard-response,253,906908,0.0-7.0-11.0-0.0-0.0,3470,"<div><div style=""""><a style=""white-space:pre-wrap;""> while a >= 5:
   a -= 5</a><a style=""""></a></div></div>",6,6,1,108,"while a >= 5:
   a -= 5",6,0
,html-keyboard-response,254,912969,0.0-7.0-11.0-1.0-0.0,5547,"<div><div style=""""><a style=""white-space:pre-wrap;""> while a >= 5:
   a -= 5</a><a style=""""></a></div></div>",1,1,1,108,"while a >= 5:
   a -= 5",1,1
,html-keyboard-response,255,914084,0.0-7.0-11.0-2.0-0.0,605,"<div><div style=""""><a style=""white-space:pre-wrap;""> while a >= 5:
   a -= 5</a><a style=""""></a></div></div>",backspace,,1,,,backspace,
,html-keyboard-response,256,917318,0.0-8.0-1.0,2728,"<p style=""font-size: 25px;"">Please press space to start the next program<br>>>>>>></p>", ,,,,,,
,html-keyboard-response,257,921051,0.0-8.0-2.0,3732,"<div><div style="" font-size:25px; color:green;""><a style=""white-space:pre-wrap;""> a = 7</a><a style=""""></a></div></div>",,null,,1,a = 7,,
,html-keyboard-response,258,923401,0.0-8.0-4.0-0.0-0.0,1847,"<div><div style=""""><a style=""white-space:pre-wrap;""> while a <= 14:
   a *= 2
   a -= 4</a><a style=""""></a></div></div>",14,14,1,2,"while a <= 14:
   a *= 2
   a -= 4",14,0
,html-keyboard-response,259,924928,0.0-8.0-4.0-1.0-0.0,1010,"<div><div style=""""><a style=""white-space:pre-wrap;""> while a <= 14:
   a *= 2
   a -= 4</a><a style=""""></a></div></div>",10,10,1,2,"while a <= 14:
   a *= 2
   a -= 4",10,1
,html-keyboard-response,260,928569,0.0-8.0-4.0-2.0-0.0,3135,"<div><div style=""""><a style=""white-space:pre-wrap;""> while a <= 14:
   a *= 2
   a -= 4</a><a style=""""></a></div></div>",20,20,1,2,"while a <= 14:
   a *= 2
   a -= 4",20,2
,html-keyboard-response,261,930203,0.0-8.0-4.0-3.0-0.0,1132,"<div><div style=""""><a style=""white-space:pre-wrap;""> while a <= 14:
   a *= 2
   a -= 4</a><a style=""""></a></div></div>",16,16,1,2,"while a <= 14:
   a *= 2
   a -= 4",16,3
,html-keyboard-response,262,931327,0.0-8.0-4.0-4.0-0.0,618,"<div><div style=""""><a style=""white-space:pre-wrap;""> while a <= 14:
   a *= 2
   a -= 4</a><a style=""""></a></div></div>",backspace,,1,,,backspace,
,html-keyboard-response,263,933968,0.0-8.0-5.0-0.0-0.0,2132,"<div><div style=""""><a style=""white-space:pre-wrap;""> while a >= 3:
   a /= 4
   a *= 2</a><a style=""""></a></div></div>",4,4,1,3,"while a >= 3:
   a /= 4
   a *= 2",4,0
,html-keyboard-response,264,935211,0.0-8.0-5.0-1.0-0.0,732,"<div><div style=""""><a style=""white-space:pre-wrap;""> while a >= 3:
   a /= 4
   a *= 2</a><a style=""""></a></div></div>",8,8,1,3,"while a >= 3:
   a /= 4
   a *= 2",8,1
,html-keyboard-response,265,938705,0.0-8.0-5.0-2.0-0.0,2990,"<div><div style=""""><a style=""white-space:pre-wrap;""> while a >= 3:
   a /= 4
   a *= 2</a><a style=""""></a></div></div>",2,2,1,3,"while a >= 3:
   a /= 4
   a *= 2",2,2
,html-keyboard-response,266,940004,0.0-8.0-5.0-3.0-0.0,781,"<div><div style=""""><a style=""white-space:pre-wrap;""> while a >= 3:
   a /= 4
   a *= 2</a><a style=""""></a></div></div>",4,4,1,3,"while a >= 3:
   a /= 4
   a *= 2",4,3
,html-keyboard-response,267,943621,0.0-8.0-5.0-4.0-0.0,3106,"<div><div style=""""><a style=""white-space:pre-wrap;""> while a >= 3:
   a /= 4
   a *= 2</a><a style=""""></a></div></div>",1,1,1,3,"while a >= 3:
   a /= 4
   a *= 2",1,4
,html-keyboard-response,268,944392,0.0-8.0-5.0-5.0-0.0,255,"<div><div style=""""><a style=""white-space:pre-wrap;""> while a >= 3:
   a /= 4
   a *= 2</a><a style=""""></a></div></div>",2,2,1,3,"while a >= 3:
   a /= 4
   a *= 2",2,5
,html-keyboard-response,269,945459,0.0-8.0-5.0-6.0-0.0,553,"<div><div style=""""><a style=""white-space:pre-wrap;""> while a >= 3:
   a /= 4
   a *= 2</a><a style=""""></a></div></div>",backspace,,1,,,backspace,
,html-keyboard-response,270,948682,0.0-8.0-6.0-0.0-0.0,2710,"<div><div style=""""><a style=""white-space:pre-wrap;""> for i in [1, 2]:
   a = round_up(a*2.5)</a><a style=""""></a></div></div>",5,5,1,4,"for i in [1, 2]:
   a = round_up(a*2.5)",5,0
,html-keyboard-response,271,962096,0.0-8.0-6.0-1.0-0.0,12909,"<div><div style=""""><a style=""white-space:pre-wrap;""> for i in [1, 2]:
   a = round_up(a*2.5)</a><a style=""""></a></div></div>",13,13,1,4,"for i in [1, 2]:
   a = round_up(a*2.5)",13,1
,html-keyboard-response,272,970919,0.0-8.0-6.0-2.0-0.0,8306,"<div><div style=""""><a style=""white-space:pre-wrap;""> for i in [1, 2]:
   a = round_up(a*2.5)</a><a style=""""></a></div></div>",backspace,,1,,,backspace,
,html-keyboard-response,273,976319,0.0-8.0-7.0-0.0-0.0,4886,"<div><div style=""""><a style=""white-space:pre-wrap;""> while a >= 7:
   a = average(a,5)</a><a style=""""></a></div></div>",9,9,1,5,"while a >= 7:
   a = average(a,5)",9,0
,html-keyboard-response,274,986891,0.0-8.0-7.0-1.0-0.0,10068,"<div><div style=""""><a style=""white-space:pre-wrap;""> while a >= 7:
   a = average(a,5)</a><a style=""""></a></div></div>",7,7,1,5,"while a >= 7:
   a = average(a,5)",7,1
,html-keyboard-response,275,990074,0.0-8.0-7.0-2.0-0.0,2674,"<div><div style=""""><a style=""white-space:pre-wrap;""> while a >= 7:
   a = average(a,5)</a><a style=""""></a></div></div>",6,6,1,5,"while a >= 7:
   a = average(a,5)",6,2
,html-keyboard-response,276,991066,0.0-8.0-7.0-3.0-0.0,479,"<div><div style=""""><a style=""white-space:pre-wrap;""> while a >= 7:
   a = average(a,5)</a><a style=""""></a></div></div>",backspace,,1,,,backspace,
,html-keyboard-response,277,993090,0.0-8.0-8.0-0.0-0.0,1517,"<div><div style=""""><a style=""white-space:pre-wrap;""> for i in [1, 2]:
   a += 2
   a /= 2</a><a style=""""></a></div></div>",8,8,1,6,"for i in [1, 2]:
   a += 2
   a /= 2",8,0
,html-keyboard-response,278,994215,0.0-8.0-8.0-1.0-0.0,621,"<div><div style=""""><a style=""white-space:pre-wrap;""> for i in [1, 2]:
   a += 2
   a /= 2</a><a style=""""></a></div></div>",4,4,1,6,"for i in [1, 2]:
   a += 2
   a /= 2",4,1
,html-keyboard-response,279,999296,0.0-8.0-8.0-2.0-0.0,4573,"<div><div style=""""><a style=""white-space:pre-wrap;""> for i in [1, 2]:
   a += 2
   a /= 2</a><a style=""""></a></div></div>",6,6,1,6,"for i in [1, 2]:
   a += 2
   a /= 2",6,2
,html-keyboard-response,280,1000580,0.0-8.0-8.0-3.0-0.0,773,"<div><div style=""""><a style=""white-space:pre-wrap;""> for i in [1, 2]:
   a += 2
   a /= 2</a><a style=""""></a></div></div>",3,3,1,6,"for i in [1, 2]:
   a += 2
   a /= 2",3,3
,html-keyboard-response,281,1001459,0.0-8.0-8.0-4.0-0.0,371,"<div><div style=""""><a style=""white-space:pre-wrap;""> for i in [1, 2]:
   a += 2
   a /= 2</a><a style=""""></a></div></div>",backspace,,1,,,backspace,
,html-keyboard-response,282,1003554,0.0-8.0-9.0-0.0-0.0,1579,"<div><div style=""""><a style=""white-space:pre-wrap;""> for i in [1, 2]:
   a *= 2</a><a style=""""></a></div></div>",6,6,1,7,"for i in [1, 2]:
   a *= 2",6,0
,html-keyboard-response,283,1005864,0.0-8.0-9.0-1.0-0.0,1797,"<div><div style=""""><a style=""white-space:pre-wrap;""> for i in [1, 2]:
   a *= 2</a><a style=""""></a></div></div>",12,12,1,7,"for i in [1, 2]:
   a *= 2",12,1
,html-keyboard-response,284,1007046,0.0-8.0-9.0-2.0-0.0,670,"<div><div style=""""><a style=""white-space:pre-wrap;""> for i in [1, 2]:
   a *= 2</a><a style=""""></a></div></div>",backspace,,1,,,backspace,
,html-keyboard-response,285,1009350,0.0-8.0-10.0-0.0-0.0,1797,"<div><div style=""""><a style=""white-space:pre-wrap;""> while a <= 14:
   a += 6
   a -= 4</a><a style=""""></a></div></div>",18,18,1,8,"while a <= 14:
   a += 6
   a -= 4",18,0
,html-keyboard-response,286,1011545,0.0-8.0-10.0-1.0-0.0,1680,"<div><div style=""""><a style=""white-space:pre-wrap;""> while a <= 14:
   a += 6
   a -= 4</a><a style=""""></a></div></div>",14,14,1,8,"while a <= 14:
   a += 6
   a -= 4",14,1
,html-keyboard-response,287,1014244,0.0-8.0-10.0-2.0-0.0,2183,"<div><div style=""""><a style=""white-space:pre-wrap;""> while a <= 14:
   a += 6
   a -= 4</a><a style=""""></a></div></div>",20,20,1,8,"while a <= 14:
   a += 6
   a -= 4",20,2
,html-keyboard-response,288,1015356,0.0-8.0-10.0-3.0-0.0,608,"<div><div style=""""><a style=""white-space:pre-wrap;""> while a <= 14:
   a += 6
   a -= 4</a><a style=""""></a></div></div>",16,16,1,8,"while a <= 14:
   a += 6
   a -= 4",16,3
,html-keyboard-response,289,1017162,0.0-8.0-10.0-4.0-0.0,1218,"<div><div style=""""><a style=""white-space:pre-wrap;""> while a <= 14:
   a += 6
   a -= 4</a><a style=""""></a></div></div>",backspace,,1,,,backspace,
,html-keyboard-response,290,1024261,0.0-8.0-11.0-0.0-0.0,6463,"<div><div style=""""><a style=""white-space:pre-wrap;""> while a >= 6:
   a -= 3</a><a style=""""></a></div></div>",13,13,1,9,"while a >= 6:
   a -= 3",13,0
,html-keyboard-response,291,1026744,0.0-8.0-11.0-1.0-0.0,1971,"<div><div style=""""><a style=""white-space:pre-wrap;""> while a >= 6:
   a -= 3</a><a style=""""></a></div></div>",10,10,1,9,"while a >= 6:
   a -= 3",10,1
,html-keyboard-response,292,1030309,0.0-8.0-11.0-2.0-0.0,3061,"<div><div style=""""><a style=""white-space:pre-wrap;""> while a >= 6:
   a -= 3</a><a style=""""></a></div></div>",7,7,1,9,"while a >= 6:
   a -= 3",7,2
,html-keyboard-response,293,1032623,0.0-8.0-11.0-3.0-0.0,1798,"<div><div style=""""><a style=""white-space:pre-wrap;""> while a >= 6:
   a -= 3</a><a style=""""></a></div></div>",4,4,1,9,"while a >= 6:
   a -= 3",4,3
,html-keyboard-response,294,1034257,0.0-8.0-11.0-4.0-0.0,1120,"<div><div style=""""><a style=""white-space:pre-wrap;""> while a >= 6:
   a -= 3</a><a style=""""></a></div></div>",backspace,,1,,,backspace,
,html-keyboard-response,295,1084079,0.0-9.0-0.0-0.0,49316,"<p style=""position:absolute; top:30%; font-size:25px; color:green;"" >Take a short break now</p>", ,,,,,,
,html-keyboard-response,296,1086412,0.0-9.0-1.0,2331,"<p style=""font-size: 25px;"">Please press space to start the next program<br>>>>>>></p>", ,,,,,,
,html-keyboard-response,297,1089022,0.0-9.0-2.0,2609,"<div><div style="" font-size:25px; color:green;""><a style=""white-space:pre-wrap;""> a = 16</a><a style=""""></a></div></div>",,null,,82,a = 16,,
,html-keyboard-response,298,1091023,0.0-9.0-4.0-0.0-0.0,1486,"<div><div style=""""><a style=""white-space:pre-wrap;""> for i in [1, 2]:
   a /= 2</a><a style=""""></a></div></div>",8,8,1,83,"for i in [1, 2]:
   a /= 2",8,0
,html-keyboard-response,299,1092370,0.0-9.0-4.0-1.0-0.0,838,"<div><div style=""""><a style=""white-space:pre-wrap;""> for i in [1, 2]:
   a /= 2</a><a style=""""></a></div></div>",4,4,1,83,"for i in [1, 2]:
   a /= 2",4,1
,html-keyboard-response,300,1093469,0.0-9.0-4.0-2.0-0.0,594,"<div><div style=""""><a style=""white-space:pre-wrap;""> for i in [1, 2]:
   a /= 2</a><a style=""""></a></div></div>",backspace,,1,,,backspace,
,html-keyboard-response,301,1096099,0.0-9.0-5.0-0.0-0.0,2114,"<div><div style=""""><a style=""white-space:pre-wrap;""> for i in [1, 2, 3]:
   a = round_up(a*1.5)</a><a style=""""></a></div></div>",6,6,1,84,"for i in [1, 2, 3]:
   a = round_up(a*1.5)",6,0
,html-keyboard-response,302,1098674,0.0-9.0-5.0-1.0-0.0,2066,"<div><div style=""""><a style=""white-space:pre-wrap;""> for i in [1, 2, 3]:
   a = round_up(a*1.5)</a><a style=""""></a></div></div>",9,9,1,84,"for i in [1, 2, 3]:
   a = round_up(a*1.5)",9,1
,html-keyboard-response,303,1108179,0.0-9.0-5.0-2.0-0.0,8987,"<div><div style=""""><a style=""white-space:pre-wrap;""> for i in [1, 2, 3]:
   a = round_up(a*1.5)</a><a style=""""></a></div></div>",14,14,1,84,"for i in [1, 2, 3]:
   a = round_up(a*1.5)",14,2
,html-keyboard-response,304,1109722,0.0-9.0-5.0-3.0-0.0,1034,"<div><div style=""""><a style=""white-space:pre-wrap;""> for i in [1, 2, 3]:
   a = round_up(a*1.5)</a><a style=""""></a></div></div>",backspace,,1,,,backspace,
,html-keyboard-response,305,1114469,0.0-9.0-6.0-0.0-0.0,4235,"<div><div style=""""><a style=""white-space:pre-wrap;""> while a >= 13:
   a += 5
   a -= 6</a><a style=""""></a></div></div>",19,19,1,85,"while a >= 13:
   a += 5
   a -= 6",19,0
,html-keyboard-response,306,1116812,0.0-9.0-6.0-1.0-0.0,1839,"<div><div style=""""><a style=""white-space:pre-wrap;""> while a >= 13:
   a += 5
   a -= 6</a><a style=""""></a></div></div>",13,13,1,85,"while a >= 13:
   a += 5
   a -= 6",13,1
,html-keyboard-response,307,1119128,0.0-9.0-6.0-2.0-0.0,1812,"<div><div style=""""><a style=""white-space:pre-wrap;""> while a >= 13:
   a += 5
   a -= 6</a><a style=""""></a></div></div>",18,18,1,85,"while a >= 13:
   a += 5
   a -= 6",18,2
,html-keyboard-response,308,1124022,0.0-9.0-6.0-3.0-0.0,4389,"<div><div style=""""><a style=""white-space:pre-wrap;""> while a >= 13:
   a += 5
   a -= 6</a><a style=""""></a></div></div>",12,12,1,85,"while a >= 13:
   a += 5
   a -= 6",12,3
,html-keyboard-response,309,1126509,0.0-9.0-6.0-4.0-0.0,1969,"<div><div style=""""><a style=""white-space:pre-wrap;""> while a >= 13:
   a += 5
   a -= 6</a><a style=""""></a></div></div>",backspace,,1,,,backspace,
,html-keyboard-response,310,1130579,0.0-9.0-7.0-0.0-0.0,3552,"<div><div style=""""><a style=""white-space:pre-wrap;""> while a >= 6:
   a = average(a,4)</a><a style=""""></a></div></div>",8,8,1,86,"while a >= 6:
   a = average(a,4)",8,0
,html-keyboard-response,311,1133292,0.0-9.0-7.0-1.0-0.0,2208,"<div><div style=""""><a style=""white-space:pre-wrap;""> while a >= 6:
   a = average(a,4)</a><a style=""""></a></div></div>",6,6,1,86,"while a >= 6:
   a = average(a,4)",6,1
,html-keyboard-response,312,1137497,0.0-9.0-7.0-2.0-0.0,3694,"<div><div style=""""><a style=""white-space:pre-wrap;""> while a >= 6:
   a = average(a,4)</a><a style=""""></a></div></div>",5,5,1,86,"while a >= 6:
   a = average(a,4)",5,2
,html-keyboard-response,313,1138473,0.0-9.0-7.0-3.0-0.0,473,"<div><div style=""""><a style=""white-space:pre-wrap;""> while a >= 6:
   a = average(a,4)</a><a style=""""></a></div></div>",backspace,,1,,,backspace,
,html-keyboard-response,314,1140370,0.0-9.0-8.0-0.0-0.0,1387,"<div><div style=""""><a style=""white-space:pre-wrap;""> for i in [1, 2]:
   a *= 3
   a -= 11</a><a style=""""></a></div></div>",15,15,1,87,"for i in [1, 2]:
   a *= 3
   a -= 11",15,0
,html-keyboard-response,315,1145428,0.0-9.0-8.0-1.0-0.0,4549,"<div><div style=""""><a style=""white-space:pre-wrap;""> for i in [1, 2]:
   a *= 3
   a -= 11</a><a style=""""></a></div></div>",4,4,1,87,"for i in [1, 2]:
   a *= 3
   a -= 11",4,1
,html-keyboard-response,316,1149489,0.0-9.0-8.0-2.0-0.0,3550,"<div><div style=""""><a style=""white-space:pre-wrap;""> for i in [1, 2]:
   a *= 3
   a -= 11</a><a style=""""></a></div></div>",12,12,1,87,"for i in [1, 2]:
   a *= 3
   a -= 11",12,2
,html-keyboard-response,317,1151744,0.0-9.0-8.0-3.0-0.0,1742,"<div><div style=""""><a style=""white-space:pre-wrap;""> for i in [1, 2]:
   a *= 3
   a -= 11</a><a style=""""></a></div></div>",1,1,1,87,"for i in [1, 2]:
   a *= 3
   a -= 11",1,3
,html-keyboard-response,318,1152884,0.0-9.0-8.0-4.0-0.0,637,"<div><div style=""""><a style=""white-space:pre-wrap;""> for i in [1, 2]:
   a *= 3
   a -= 11</a><a style=""""></a></div></div>",backspace,,1,,,backspace,
,html-keyboard-response,319,1156443,0.0-9.0-9.0-0.0-0.0,3043,"<div><div style=""""><a style=""white-space:pre-wrap;""> while a <= 7:
   a *= 6
   a /= 2</a><a style=""""></a></div></div>",6,6,1,88,"while a <= 7:
   a *= 6
   a /= 2",6,0
,html-keyboard-response,320,1158243,0.0-9.0-9.0-1.0-0.0,1285,"<div><div style=""""><a style=""white-space:pre-wrap;""> while a <= 7:
   a *= 6
   a /= 2</a><a style=""""></a></div></div>",3,3,1,88,"while a <= 7:
   a *= 6
   a /= 2",3,1
,html-keyboard-response,321,1160524,0.0-9.0-9.0-2.0-0.0,1766,"<div><div style=""""><a style=""white-space:pre-wrap;""> while a <= 7:
   a *= 6
   a /= 2</a><a style=""""></a></div></div>",18,18,1,88,"while a <= 7:
   a *= 6
   a /= 2",18,2
,html-keyboard-response,322,1161934,0.0-9.0-9.0-3.0-0.0,897,"<div><div style=""""><a style=""white-space:pre-wrap;""> while a <= 7:
   a *= 6
   a /= 2</a><a style=""""></a></div></div>",9,9,1,88,"while a <= 7:
   a *= 6
   a /= 2",9,3
,html-keyboard-response,323,1164242,0.0-9.0-9.0-4.0-0.0,1800,"<div><div style=""""><a style=""white-space:pre-wrap;""> while a <= 7:
   a *= 6
   a /= 2</a><a style=""""></a></div></div>",backspace,,1,,,backspace,
,html-keyboard-response,324,1167173,0.0-9.0-10.0-0.0-0.0,2413,"<div><div style=""""><a style=""white-space:pre-wrap;""> while a >= 7:
   a -= 2</a><a style=""""></a></div></div>",7,7,1,89,"while a >= 7:
   a -= 2",7,0
,html-keyboard-response,325,1170201,0.0-9.0-10.0-1.0-0.0,2518,"<div><div style=""""><a style=""white-space:pre-wrap;""> while a >= 7:
   a -= 2</a><a style=""""></a></div></div>",5,5,1,89,"while a >= 7:
   a -= 2",5,1
,html-keyboard-response,326,1171311,0.0-9.0-10.0-2.0-0.0,605,"<div><div style=""""><a style=""white-space:pre-wrap;""> while a >= 7:
   a -= 2</a><a style=""""></a></div></div>",backspace,,1,,,backspace,
,html-keyboard-response,327,1175906,0.0-9.0-11.0-0.0-0.0,4082,"<div><div style=""""><a style=""white-space:pre-wrap;""> for i in [1, 2]:
   a += 9
   a /= 2</a><a style=""""></a></div></div>",14,14,1,90,"for i in [1, 2]:
   a += 9
   a /= 2",14,0
,html-keyboard-response,328,1177296,0.0-9.0-11.0-1.0-0.0,884,"<div><div style=""""><a style=""white-space:pre-wrap;""> for i in [1, 2]:
   a += 9
   a /= 2</a><a style=""""></a></div></div>",7,7,1,90,"for i in [1, 2]:
   a += 9
   a /= 2",7,1
,html-keyboard-response,329,1186008,0.0-9.0-11.0-2.0-0.0,8209,"<div><div style=""""><a style=""white-space:pre-wrap;""> for i in [1, 2]:
   a += 9
   a /= 2</a><a style=""""></a></div></div>",16,16,1,90,"for i in [1, 2]:
   a += 9
   a /= 2",16,2
,html-keyboard-response,330,1187679,0.0-9.0-11.0-3.0-0.0,1154,"<div><div style=""""><a style=""white-space:pre-wrap;""> for i in [1, 2]:
   a += 9
   a /= 2</a><a style=""""></a></div></div>",8,8,1,90,"for i in [1, 2]:
   a += 9
   a /= 2",8,3
,html-keyboard-response,331,1188786,0.0-9.0-11.0-4.0-0.0,604,"<div><div style=""""><a style=""white-space:pre-wrap;""> for i in [1, 2]:
   a += 9
   a /= 2</a><a style=""""></a></div></div>",backspace,,1,,,backspace,
,html-keyboard-response,332,1191992,0.0-10.0-1.0,2698,"<p style=""font-size: 25px;"">Please press space to start the next program<br>>>>>>></p>", ,,,,,,
,html-keyboard-response,333,1196898,0.0-10.0-2.0,4904,"<div><div style="" font-size:25px; color:green;""><a style=""white-space:pre-wrap;""> a = 11</a><a style=""""></a></div></div>",,null,,64,a = 11,,
,html-keyboard-response,334,1199695,0.0-10.0-4.0-0.0-0.0,2291,"<div><div style=""""><a style=""white-space:pre-wrap;""> while a >= 5:
   a += 4
   a /= 3</a><a style=""""></a></div></div>",15,15,1,65,"while a >= 5:
   a += 4
   a /= 3",15,0
,html-keyboard-response,335,1200907,0.0-10.0-4.0-1.0-0.0,701,"<div><div style=""""><a style=""white-space:pre-wrap;""> while a >= 5:
   a += 4
   a /= 3</a><a style=""""></a></div></div>",5,5,1,65,"while a >= 5:
   a += 4
   a /= 3",5,1
,html-keyboard-response,336,1203261,0.0-10.0-4.0-2.0-0.0,1838,"<div><div style=""""><a style=""white-space:pre-wrap;""> while a >= 5:
   a += 4
   a /= 3</a><a style=""""></a></div></div>",9,9,1,65,"while a >= 5:
   a += 4
   a /= 3",9,2
,html-keyboard-response,337,1204221,0.0-10.0-4.0-3.0-0.0,449,"<div><div style=""""><a style=""white-space:pre-wrap;""> while a >= 5:
   a += 4
   a /= 3</a><a style=""""></a></div></div>",3,3,1,65,"while a >= 5:
   a += 4
   a /= 3",3,3
,html-keyboard-response,338,1205149,0.0-10.0-4.0-4.0-0.0,423,"<div><div style=""""><a style=""white-space:pre-wrap;""> while a >= 5:
   a += 4
   a /= 3</a><a style=""""></a></div></div>",backspace,,1,,,backspace,
,html-keyboard-response,339,1216050,0.0-10.0-5.0-0.0-0.0,10386,"<div><div style=""""><a style=""white-space:pre-wrap;""> while a <= 11:
   a = round_down(a*2.5)</a><a style=""""></a></div></div>",7,7,1,66,"while a <= 11:
   a = round_down(a*2.5)",7,0
,html-keyboard-response,340,1249308,0.0-10.0-5.0-1.0-0.0,32746,"<div><div style=""""><a style=""white-space:pre-wrap;""> while a <= 11:
   a = round_down(a*2.5)</a><a style=""""></a></div></div>",17,17,1,66,"while a <= 11:
   a = round_down(a*2.5)",17,1
,html-keyboard-response,341,1253920,0.0-10.0-5.0-2.0-0.0,4098,"<div><div style=""""><a style=""white-space:pre-wrap;""> while a <= 11:
   a = round_down(a*2.5)</a><a style=""""></a></div></div>",backspace,,1,,,backspace,
,html-keyboard-response,342,1257037,0.0-10.0-6.0-0.0-0.0,2608,"<div><div style=""""><a style=""white-space:pre-wrap;""> for i in [1, 2, 3, 4]:
   a = average(a,1)</a><a style=""""></a></div></div>",9,9,1,67,"for i in [1, 2, 3, 4]:
   a = average(a,1)",9,0
,html-keyboard-response,343,1259336,0.0-10.0-6.0-1.0-0.0,1796,"<div><div style=""""><a style=""white-space:pre-wrap;""> for i in [1, 2, 3, 4]:
   a = average(a,1)</a><a style=""""></a></div></div>",5,5,1,67,"for i in [1, 2, 3, 4]:
   a = average(a,1)",5,1
,html-keyboard-response,344,1264971,0.0-10.0-6.0-2.0-0.0,5128,"<div><div style=""""><a style=""white-space:pre-wrap;""> for i in [1, 2, 3, 4]:
   a = average(a,1)</a><a style=""""></a></div></div>",3,3,1,67,"for i in [1, 2, 3, 4]:
   a = average(a,1)",3,2
,html-keyboard-response,345,1267949,0.0-10.0-6.0-3.0-0.0,2475,"<div><div style=""""><a style=""white-space:pre-wrap;""> for i in [1, 2, 3, 4]:
   a = average(a,1)</a><a style=""""></a></div></div>",2,2,1,67,"for i in [1, 2, 3, 4]:
   a = average(a,1)",2,3
,html-keyboard-response,346,1270192,0.0-10.0-6.0-4.0-0.0,1735,"<div><div style=""""><a style=""white-space:pre-wrap;""> for i in [1, 2, 3, 4]:
   a = average(a,1)</a><a style=""""></a></div></div>",backspace,,1,,,backspace,
,html-keyboard-response,347,1271973,0.0-10.0-7.0-0.0-0.0,1269,"<div><div style=""""><a style=""white-space:pre-wrap;""> while a <= 10:
   a *= 3
   a -= 1</a><a style=""""></a></div></div>",6,6,1,68,"while a <= 10:
   a *= 3
   a -= 1",6,0
,html-keyboard-response,348,1272788,0.0-10.0-7.0-1.0-0.0,301,"<div><div style=""""><a style=""white-space:pre-wrap;""> while a <= 10:
   a *= 3
   a -= 1</a><a style=""""></a></div></div>",5,5,1,68,"while a <= 10:
   a *= 3
   a -= 1",5,1
,html-keyboard-response,349,1274543,0.0-10.0-7.0-2.0-0.0,1245,"<div><div style=""""><a style=""white-space:pre-wrap;""> while a <= 10:
   a *= 3
   a -= 1</a><a style=""""></a></div></div>",15,15,1,68,"while a <= 10:
   a *= 3
   a -= 1",15,2
,html-keyboard-response,350,1276299,0.0-10.0-7.0-3.0-0.0,1247,"<div><div style=""""><a style=""white-space:pre-wrap;""> while a <= 10:
   a *= 3
   a -= 1</a><a style=""""></a></div></div>",14,14,1,68,"while a <= 10:
   a *= 3
   a -= 1",14,3
,html-keyboard-response,351,1282507,0.0-10.0-7.0-4.0-0.0,5699,"<div><div style=""""><a style=""white-space:pre-wrap;""> while a <= 10:
   a *= 3
   a -= 1</a><a style=""""></a></div></div>",backspace,,1,,,backspace,
,html-keyboard-response,352,1286478,0.0-10.0-8.0-0.0-0.0,3465,"<div><div style=""""><a style=""white-space:pre-wrap;""> while a >= 4:
   a -= 5
   a += 1</a><a style=""""></a></div></div>",9,9,1,69,"while a >= 4:
   a -= 5
   a += 1",9,0
,html-keyboard-response,353,1287381,0.0-10.0-8.0-1.0-0.0,391,"<div><div style=""""><a style=""white-space:pre-wrap;""> while a >= 4:
   a -= 5
   a += 1</a><a style=""""></a></div></div>",10,10,1,69,"while a >= 4:
   a -= 5
   a += 1",10,1
,html-keyboard-response,354,1289268,0.0-10.0-8.0-2.0-0.0,1370,"<div><div style=""""><a style=""white-space:pre-wrap;""> while a >= 4:
   a -= 5
   a += 1</a><a style=""""></a></div></div>",5,5,1,69,"while a >= 4:
   a -= 5
   a += 1",5,2
,html-keyboard-response,355,1291052,0.0-10.0-8.0-3.0-0.0,1281,"<div><div style=""""><a style=""white-space:pre-wrap;""> while a >= 4:
   a -= 5
   a += 1</a><a style=""""></a></div></div>",6,6,1,69,"while a >= 4:
   a -= 5
   a += 1",6,3
,html-keyboard-response,356,1293954,0.0-10.0-8.0-4.0-0.0,2390,"<div><div style=""""><a style=""white-space:pre-wrap;""> while a >= 4:
   a -= 5
   a += 1</a><a style=""""></a></div></div>",1,1,1,69,"while a >= 4:
   a -= 5
   a += 1",1,4
,html-keyboard-response,357,1294564,0.0-10.0-8.0-5.0-0.0,103,"<div><div style=""""><a style=""white-space:pre-wrap;""> while a >= 4:
   a -= 5
   a += 1</a><a style=""""></a></div></div>",2,2,1,69,"while a >= 4:
   a -= 5
   a += 1",2,5
,html-keyboard-response,358,1295815,0.0-10.0-8.0-6.0-0.0,743,"<div><div style=""""><a style=""white-space:pre-wrap;""> while a >= 4:
   a -= 5
   a += 1</a><a style=""""></a></div></div>",backspace,,1,,,backspace,
,html-keyboard-response,359,1298416,0.0-10.0-9.0-0.0-0.0,2085,"<div><div style=""""><a style=""white-space:pre-wrap;""> for i in [1, 2]:
   a *= 3</a><a style=""""></a></div></div>",6,6,1,70,"for i in [1, 2]:
   a *= 3",6,0
,html-keyboard-response,360,1300523,0.0-10.0-9.0-1.0-0.0,1598,"<div><div style=""""><a style=""white-space:pre-wrap;""> for i in [1, 2]:
   a *= 3</a><a style=""""></a></div></div>",18,18,1,70,"for i in [1, 2]:
   a *= 3",18,1
,html-keyboard-response,361,1301891,0.0-10.0-9.0-2.0-0.0,865,"<div><div style=""""><a style=""white-space:pre-wrap;""> for i in [1, 2]:
   a *= 3</a><a style=""""></a></div></div>",backspace,,1,,,backspace,
,html-keyboard-response,362,1304210,0.0-10.0-10.0-0.0-0.0,1803,"<div><div style=""""><a style=""white-space:pre-wrap;""> while a >= 11:
   a /= 3
   a *= 2</a><a style=""""></a></div></div>",6,6,1,71,"while a >= 11:
   a /= 3
   a *= 2",6,0
,html-keyboard-response,363,1305635,0.0-10.0-10.0-1.0-0.0,917,"<div><div style=""""><a style=""white-space:pre-wrap;""> while a >= 11:
   a /= 3
   a *= 2</a><a style=""""></a></div></div>",12,12,1,71,"while a >= 11:
   a /= 3
   a *= 2",12,1
,html-keyboard-response,364,1307023,0.0-10.0-10.0-2.0-0.0,877,"<div><div style=""""><a style=""white-space:pre-wrap;""> while a >= 11:
   a /= 3
   a *= 2</a><a style=""""></a></div></div>",4,4,1,71,"while a >= 11:
   a /= 3
   a *= 2",4,2
,html-keyboard-response,365,1308783,0.0-10.0-10.0-3.0-0.0,1242,"<div><div style=""""><a style=""white-space:pre-wrap;""> while a >= 11:
   a /= 3
   a *= 2</a><a style=""""></a></div></div>",8,8,1,71,"while a >= 11:
   a /= 3
   a *= 2",8,3
,html-keyboard-response,366,1310243,0.0-10.0-10.0-4.0-0.0,955,"<div><div style=""""><a style=""white-space:pre-wrap;""> while a >= 11:
   a /= 3
   a *= 2</a><a style=""""></a></div></div>",backspace,,1,,,backspace,
,html-keyboard-response,367,1312849,0.0-10.0-11.0-0.0-0.0,2098,"<div><div style=""""><a style=""white-space:pre-wrap;""> while a <= 17:
   a += 4</a><a style=""""></a></div></div>",12,12,1,72,"while a <= 17:
   a += 4",12,0
,html-keyboard-response,368,1315745,0.0-10.0-11.0-1.0-0.0,2379,"<div><div style=""""><a style=""white-space:pre-wrap;""> while a <= 17:
   a += 4</a><a style=""""></a></div></div>",16,16,1,72,"while a <= 17:
   a += 4",16,1
,html-keyboard-response,369,1317699,0.0-10.0-11.0-2.0-0.0,1442,"<div><div style=""""><a style=""white-space:pre-wrap;""> while a <= 17:
   a += 4</a><a style=""""></a></div></div>",20,20,1,72,"while a <= 17:
   a += 4",20,2
,html-keyboard-response,370,1318905,0.0-10.0-11.0-3.0-0.0,689,"<div><div style=""""><a style=""white-space:pre-wrap;""> while a <= 17:
   a += 4</a><a style=""""></a></div></div>",backspace,,1,,,backspace,
,html-keyboard-response,371,1320754,0.0-11.0-1.0,1336,"<p style=""font-size: 25px;"">Please press space to start the next program<br>>>>>>></p>", ,,,,,,
,html-keyboard-response,372,1323718,0.0-11.0-2.0,2962,"<div><div style="" font-size:25px; color:green;""><a style=""white-space:pre-wrap;""> a = 16</a><a style=""""></a></div></div>",,null,,73,a = 16,,
,html-keyboard-response,373,1325443,0.0-11.0-4.0-0.0-0.0,1220,"<div><div style=""""><a style=""white-space:pre-wrap;""> while a >= 6:
   a /= 2</a><a style=""""></a></div></div>",8,8,1,74,"while a >= 6:
   a /= 2",8,0
,html-keyboard-response,374,1329470,0.0-11.0-4.0-1.0-0.0,3520,"<div><div style=""""><a style=""white-space:pre-wrap;""> while a >= 6:
   a /= 2</a><a style=""""></a></div></div>",4,4,1,74,"while a >= 6:
   a /= 2",4,1
,html-keyboard-response,375,1330488,0.0-11.0-4.0-2.0-0.0,507,"<div><div style=""""><a style=""white-space:pre-wrap;""> while a >= 6:
   a /= 2</a><a style=""""></a></div></div>",backspace,,1,,,backspace,
,html-keyboard-response,376,1333021,0.0-11.0-5.0-0.0-0.0,2023,"<div><div style=""""><a style=""white-space:pre-wrap;""> for i in [1, 2, 3]:
   a = round_up(a*1.5)</a><a style=""""></a></div></div>",6,6,1,75,"for i in [1, 2, 3]:
   a = round_up(a*1.5)",6,0
,html-keyboard-response,377,1334170,0.0-11.0-5.0-1.0-0.0,643,"<div><div style=""""><a style=""white-space:pre-wrap;""> for i in [1, 2, 3]:
   a = round_up(a*1.5)</a><a style=""""></a></div></div>",9,9,1,75,"for i in [1, 2, 3]:
   a = round_up(a*1.5)",9,1
,html-keyboard-response,378,1345778,0.0-11.0-5.0-2.0-0.0,11097,"<div><div style=""""><a style=""white-space:pre-wrap;""> for i in [1, 2, 3]:
   a = round_up(a*1.5)</a><a style=""""></a></div></div>",14,14,1,75,"for i in [1, 2, 3]:
   a = round_up(a*1.5)",14,2
,html-keyboard-response,379,1348408,0.0-11.0-5.0-3.0-0.0,2118,"<div><div style=""""><a style=""white-space:pre-wrap;""> for i in [1, 2, 3]:
   a = round_up(a*1.5)</a><a style=""""></a></div></div>",backspace,,1,,,backspace,
,html-keyboard-response,380,1352698,0.0-11.0-6.0-0.0-0.0,3781,"<div><div style=""""><a style=""white-space:pre-wrap;""> for i in [1, 2]:
   a += 5
   a -= 6</a><a style=""""></a></div></div>",19,19,1,76,"for i in [1, 2]:
   a += 5
   a -= 6",19,0
,html-keyboard-response,381,1357396,0.0-11.0-6.0-1.0-0.0,4195,"<div><div style=""""><a style=""white-space:pre-wrap;""> for i in [1, 2]:
   a += 5
   a -= 6</a><a style=""""></a></div></div>",13,13,1,76,"for i in [1, 2]:
   a += 5
   a -= 6",13,1
,html-keyboard-response,382,1359876,0.0-11.0-6.0-2.0-0.0,1975,"<div><div style=""""><a style=""white-space:pre-wrap;""> for i in [1, 2]:
   a += 5
   a -= 6</a><a style=""""></a></div></div>",18,18,1,76,"for i in [1, 2]:
   a += 5
   a -= 6",18,2
,html-keyboard-response,383,1361182,0.0-11.0-6.0-3.0-0.0,790,"<div><div style=""""><a style=""white-space:pre-wrap;""> for i in [1, 2]:
   a += 5
   a -= 6</a><a style=""""></a></div></div>",12,12,1,76,"for i in [1, 2]:
   a += 5
   a -= 6",12,3
,html-keyboard-response,384,1363080,0.0-11.0-6.0-4.0-0.0,1392,"<div><div style=""""><a style=""white-space:pre-wrap;""> for i in [1, 2]:
   a += 5
   a -= 6</a><a style=""""></a></div></div>",backspace,,1,,,backspace,
,html-keyboard-response,385,1365614,0.0-11.0-7.0-0.0-0.0,2020,"<div><div style=""""><a style=""white-space:pre-wrap;""> while a >= 6:
   a = average(a,4)</a><a style=""""></a></div></div>",8,8,1,77,"while a >= 6:
   a = average(a,4)",8,0
,html-keyboard-response,386,1367521,0.0-11.0-7.0-1.0-0.0,1395,"<div><div style=""""><a style=""white-space:pre-wrap;""> while a >= 6:
   a = average(a,4)</a><a style=""""></a></div></div>",6,6,1,77,"while a >= 6:
   a = average(a,4)",6,1
,html-keyboard-response,387,1372139,0.0-11.0-7.0-2.0-0.0,4109,"<div><div style=""""><a style=""white-space:pre-wrap;""> while a >= 6:
   a = average(a,4)</a><a style=""""></a></div></div>",5,5,1,77,"while a >= 6:
   a = average(a,4)",5,2
,html-keyboard-response,388,1373984,0.0-11.0-7.0-3.0-0.0,1329,"<div><div style=""""><a style=""white-space:pre-wrap;""> while a >= 6:
   a = average(a,4)</a><a style=""""></a></div></div>",backspace,,1,,,backspace,
,html-keyboard-response,389,1375711,0.0-11.0-8.0-0.0-0.0,1213,"<div><div style=""""><a style=""white-space:pre-wrap;""> while a >= 3:
   a *= 3
   a -= 11</a><a style=""""></a></div></div>",15,15,1,78,"while a >= 3:
   a *= 3
   a -= 11",15,0
,html-keyboard-response,390,1377961,0.0-11.0-8.0-1.0-0.0,1733,"<div><div style=""""><a style=""white-space:pre-wrap;""> while a >= 3:
   a *= 3
   a -= 11</a><a style=""""></a></div></div>",4,4,1,78,"while a >= 3:
   a *= 3
   a -= 11",4,1
,html-keyboard-response,391,1380874,0.0-11.0-8.0-2.0-0.0,2407,"<div><div style=""""><a style=""white-space:pre-wrap;""> while a >= 3:
   a *= 3
   a -= 11</a><a style=""""></a></div></div>",12,12,1,78,"while a >= 3:
   a *= 3
   a -= 11",12,2
,html-keyboard-response,392,1382098,0.0-11.0-8.0-3.0-0.0,710,"<div><div style=""""><a style=""white-space:pre-wrap;""> while a >= 3:
   a *= 3
   a -= 11</a><a style=""""></a></div></div>",1,1,1,78,"while a >= 3:
   a *= 3
   a -= 11",1,3
,html-keyboard-response,393,1383025,0.0-11.0-8.0-4.0-0.0,422,"<div><div style=""""><a style=""white-space:pre-wrap;""> while a >= 3:
   a *= 3
   a -= 11</a><a style=""""></a></div></div>",backspace,,1,,,backspace,
,html-keyboard-response,394,1385268,0.0-11.0-9.0-0.0-0.0,1729,"<div><div style=""""><a style=""white-space:pre-wrap;""> while a <= 7:
   a *= 6
   a /= 2</a><a style=""""></a></div></div>",6,6,1,79,"while a <= 7:
   a *= 6
   a /= 2",6,0
,html-keyboard-response,395,1387300,0.0-11.0-9.0-1.0-0.0,1523,"<div><div style=""""><a style=""white-space:pre-wrap;""> while a <= 7:
   a *= 6
   a /= 2</a><a style=""""></a></div></div>",3,3,1,79,"while a <= 7:
   a *= 6
   a /= 2",3,1
,html-keyboard-response,396,1398567,0.0-11.0-9.0-2.0-0.0,10755,"<div><div style=""""><a style=""white-space:pre-wrap;""> while a <= 7:
   a *= 6
   a /= 2</a><a style=""""></a></div></div>",18,18,1,79,"while a <= 7:
   a *= 6
   a /= 2",18,2
,html-keyboard-response,397,1400002,0.0-11.0-9.0-3.0-0.0,920,"<div><div style=""""><a style=""white-space:pre-wrap;""> while a <= 7:
   a *= 6
   a /= 2</a><a style=""""></a></div></div>",9,9,1,79,"while a <= 7:
   a *= 6
   a /= 2",9,3
,html-keyboard-response,398,1400897,0.0-11.0-9.0-4.0-0.0,391,"<div><div style=""""><a style=""white-space:pre-wrap;""> while a <= 7:
   a *= 6
   a /= 2</a><a style=""""></a></div></div>",backspace,,1,,,backspace,
,html-keyboard-response,399,1403284,0.0-11.0-10.0-0.0-0.0,1872,"<div><div style=""""><a style=""white-space:pre-wrap;""> for i in [1, 2]:
   a -= 2</a><a style=""""></a></div></div>",7,7,1,80,"for i in [1, 2]:
   a -= 2",7,0
,html-keyboard-response,400,1404356,0.0-11.0-10.0-1.0-0.0,564,"<div><div style=""""><a style=""white-space:pre-wrap;""> for i in [1, 2]:
   a -= 2</a><a style=""""></a></div></div>",5,5,1,80,"for i in [1, 2]:
   a -= 2",5,1
,html-keyboard-response,401,1405315,0.0-11.0-10.0-2.0-0.0,456,"<div><div style=""""><a style=""white-space:pre-wrap;""> for i in [1, 2]:
   a -= 2</a><a style=""""></a></div></div>",backspace,,1,,,backspace,
,html-keyboard-response,402,1411352,0.0-11.0-11.0-0.0-0.0,5523,"<div><div style=""""><a style=""white-space:pre-wrap;""> for i in [1, 2]:
   a += 9
   a /= 2</a><a style=""""></a></div></div>",14,14,1,81,"for i in [1, 2]:
   a += 9
   a /= 2",14,0
,html-keyboard-response,403,1412162,0.0-11.0-11.0-1.0-0.0,308,"<div><div style=""""><a style=""white-space:pre-wrap;""> for i in [1, 2]:
   a += 9
   a /= 2</a><a style=""""></a></div></div>",7,7,1,81,"for i in [1, 2]:
   a += 9
   a /= 2",7,1
,html-keyboard-response,404,1417322,0.0-11.0-11.0-2.0-0.0,4652,"<div><div style=""""><a style=""white-space:pre-wrap;""> for i in [1, 2]:
   a += 9
   a /= 2</a><a style=""""></a></div></div>",16,16,1,81,"for i in [1, 2]:
   a += 9
   a /= 2",16,2
,html-keyboard-response,405,1418199,0.0-11.0-11.0-3.0-0.0,359,"<div><div style=""""><a style=""white-space:pre-wrap;""> for i in [1, 2]:
   a += 9
   a /= 2</a><a style=""""></a></div></div>",8,8,1,81,"for i in [1, 2]:
   a += 9
   a /= 2",8,3
,html-keyboard-response,406,1419283,0.0-11.0-11.0-4.0-0.0,569,"<div><div style=""""><a style=""white-space:pre-wrap;""> for i in [1, 2]:
   a += 9
   a /= 2</a><a style=""""></a></div></div>",backspace,,1,,,backspace,
,html-keyboard-response,407,1465773,0.0-12.0-0.0-0.0,45980,"<p style=""position:absolute; top:30%; font-size:25px; color:green;"" >Take a short break now</p>", ,,,,,,
,html-keyboard-response,408,1467627,0.0-12.0-1.0,1852,"<p style=""font-size: 25px;"">Please press space to start the next program<br>>>>>>></p>", ,,,,,,
,html-keyboard-response,409,1469442,0.0-12.0-2.0,1814,"<div><div style="" font-size:25px; color:green;""><a style=""white-space:pre-wrap;""> a = 18</a><a style=""""></a></div></div>",,null,,19,a = 18,,
,html-keyboard-response,410,1471781,0.0-12.0-4.0-0.0-0.0,1825,"<div><div style=""""><a style=""white-space:pre-wrap;""> for i in [1, 2]:
   a /= 3
   a *= 2</a><a style=""""></a></div></div>",6,6,1,20,"for i in [1, 2]:
   a /= 3
   a *= 2",6,0
,html-keyboard-response,411,1472909,0.0-12.0-4.0-1.0-0.0,625,"<div><div style=""""><a style=""white-space:pre-wrap;""> for i in [1, 2]:
   a /= 3
   a *= 2</a><a style=""""></a></div></div>",12,12,1,20,"for i in [1, 2]:
   a /= 3
   a *= 2",12,1
,html-keyboard-response,412,1474984,0.0-12.0-4.0-2.0-0.0,1559,"<div><div style=""""><a style=""white-space:pre-wrap;""> for i in [1, 2]:
   a /= 3
   a *= 2</a><a style=""""></a></div></div>",4,4,1,20,"for i in [1, 2]:
   a /= 3
   a *= 2",4,2
,html-keyboard-response,413,1475896,0.0-12.0-4.0-3.0-0.0,404,"<div><div style=""""><a style=""white-space:pre-wrap;""> for i in [1, 2]:
   a /= 3
   a *= 2</a><a style=""""></a></div></div>",8,8,1,20,"for i in [1, 2]:
   a /= 3
   a *= 2",8,3
,html-keyboard-response,414,1476679,0.0-12.0-4.0-4.0-0.0,268,"<div><div style=""""><a style=""white-space:pre-wrap;""> for i in [1, 2]:
   a /= 3
   a *= 2</a><a style=""""></a></div></div>",backspace,,1,,,backspace,
,html-keyboard-response,415,1478497,0.0-12.0-5.0-0.0-0.0,1303,"<div><div style=""""><a style=""white-space:pre-wrap;""> for i in [1, 2, 3]:
   a /= 2</a><a style=""""></a></div></div>",4,4,1,21,"for i in [1, 2, 3]:
   a /= 2",4,0
,html-keyboard-response,416,1479956,0.0-12.0-5.0-1.0-0.0,945,"<div><div style=""""><a style=""white-space:pre-wrap;""> for i in [1, 2, 3]:
   a /= 2</a><a style=""""></a></div></div>",2,2,1,21,"for i in [1, 2, 3]:
   a /= 2",2,1
,html-keyboard-response,417,1480725,0.0-12.0-5.0-2.0-0.0,264,"<div><div style=""""><a style=""white-space:pre-wrap;""> for i in [1, 2, 3]:
   a /= 2</a><a style=""""></a></div></div>",1,1,1,21,"for i in [1, 2, 3]:
   a /= 2",1,2
,html-keyboard-response,418,1481530,0.0-12.0-5.0-3.0-0.0,295,"<div><div style=""""><a style=""white-space:pre-wrap;""> for i in [1, 2, 3]:
   a /= 2</a><a style=""""></a></div></div>",backspace,,1,,,backspace,
,html-keyboard-response,419,1483698,0.0-12.0-6.0-0.0-0.0,1664,"<div><div style=""""><a style=""white-space:pre-wrap;""> while a <= 7:
   a += 2</a><a style=""""></a></div></div>",3,3,1,22,"while a <= 7:
   a += 2",3,0
,html-keyboard-response,420,1484621,0.0-12.0-6.0-1.0-0.0,412,"<div><div style=""""><a style=""white-space:pre-wrap;""> while a <= 7:
   a += 2</a><a style=""""></a></div></div>",5,5,1,22,"while a <= 7:
   a += 2",5,1
,html-keyboard-response,421,1485459,0.0-12.0-6.0-2.0-0.0,331,"<div><div style=""""><a style=""white-space:pre-wrap;""> while a <= 7:
   a += 2</a><a style=""""></a></div></div>",7,7,1,22,"while a <= 7:
   a += 2",7,2
,html-keyboard-response,422,1486355,0.0-12.0-6.0-3.0-0.0,381,"<div><div style=""""><a style=""white-space:pre-wrap;""> while a <= 7:
   a += 2</a><a style=""""></a></div></div>",9,9,1,22,"while a <= 7:
   a += 2",9,3
,html-keyboard-response,423,1487332,0.0-12.0-6.0-4.0-0.0,463,"<div><div style=""""><a style=""white-space:pre-wrap;""> while a <= 7:
   a += 2</a><a style=""""></a></div></div>",backspace,,1,,,backspace,
,html-keyboard-response,424,1489339,0.0-12.0-7.0-0.0-0.0,1494,"<div><div style=""""><a style=""white-space:pre-wrap;""> for i in [1, 2]:
   a += 9
   a /= 3</a><a style=""""></a></div></div>",18,18,1,23,"for i in [1, 2]:
   a += 9
   a /= 3",18,0
,html-keyboard-response,425,1490646,0.0-12.0-7.0-1.0-0.0,791,"<div><div style=""""><a style=""white-space:pre-wrap;""> for i in [1, 2]:
   a += 9
   a /= 3</a><a style=""""></a></div></div>",6,6,1,23,"for i in [1, 2]:
   a += 9
   a /= 3",6,1
,html-keyboard-response,426,1493139,0.0-12.0-7.0-2.0-0.0,1984,"<div><div style=""""><a style=""white-space:pre-wrap;""> for i in [1, 2]:
   a += 9
   a /= 3</a><a style=""""></a></div></div>",15,15,1,23,"for i in [1, 2]:
   a += 9
   a /= 3",15,2
,html-keyboard-response,427,1494878,0.0-12.0-7.0-3.0-0.0,1226,"<div><div style=""""><a style=""white-space:pre-wrap;""> for i in [1, 2]:
   a += 9
   a /= 3</a><a style=""""></a></div></div>",5,5,1,23,"for i in [1, 2]:
   a += 9
   a /= 3",5,3
,html-keyboard-response,428,1496045,0.0-12.0-7.0-4.0-0.0,660,"<div><div style=""""><a style=""white-space:pre-wrap;""> for i in [1, 2]:
   a += 9
   a /= 3</a><a style=""""></a></div></div>",backspace,,1,,,backspace,
,html-keyboard-response,429,1504146,0.0-12.0-8.0-0.0-0.0,7595,"<div><div style=""""><a style=""white-space:pre-wrap;""> while a <= 11:
   a = round_down(a*1.5)</a><a style=""""></a></div></div>",7,7,1,24,"while a <= 11:
   a = round_down(a*1.5)",7,0
,html-keyboard-response,430,1509508,0.0-12.0-8.0-1.0-0.0,4851,"<div><div style=""""><a style=""white-space:pre-wrap;""> while a <= 11:
   a = round_down(a*1.5)</a><a style=""""></a></div></div>",10,10,1,24,"while a <= 11:
   a = round_down(a*1.5)",10,1
,html-keyboard-response,431,1513968,0.0-12.0-8.0-2.0-0.0,3954,"<div><div style=""""><a style=""white-space:pre-wrap;""> while a <= 11:
   a = round_down(a*1.5)</a><a style=""""></a></div></div>",15,15,1,24,"while a <= 11:
   a = round_down(a*1.5)",15,2
,html-keyboard-response,432,1514954,0.0-12.0-8.0-3.0-0.0,473,"<div><div style=""""><a style=""white-space:pre-wrap;""> while a <= 11:
   a = round_down(a*1.5)</a><a style=""""></a></div></div>",backspace,,1,,,backspace,
,html-keyboard-response,433,1519288,0.0-12.0-9.0-0.0-0.0,3816,"<div><div style=""""><a style=""white-space:pre-wrap;""> while a >= 8:
   a = average(a,3)</a><a style=""""></a></div></div>",9,9,1,25,"while a >= 8:
   a = average(a,3)",9,0
,html-keyboard-response,434,1521809,0.0-12.0-9.0-1.0-0.0,2015,"<div><div style=""""><a style=""white-space:pre-wrap;""> while a >= 8:
   a = average(a,3)</a><a style=""""></a></div></div>",6,6,1,25,"while a >= 8:
   a = average(a,3)",6,1
,html-keyboard-response,435,1530599,0.0-12.0-9.0-2.0-0.0,8277,"<div><div style=""""><a style=""white-space:pre-wrap;""> while a >= 8:
   a = average(a,3)</a><a style=""""></a></div></div>",backspace,,1,,,backspace,
,html-keyboard-response,436,1535399,0.0-12.0-10.0-0.0-0.0,4290,"<div><div style=""""><a style=""white-space:pre-wrap;""> for i in [1, 2, 3]:
   a *= 2
   a -= 5</a><a style=""""></a></div></div>",12,12,1,26,"for i in [1, 2, 3]:
   a *= 2
   a -= 5",12,0
,html-keyboard-response,437,1536999,0.0-12.0-10.0-1.0-0.0,1083,"<div><div style=""""><a style=""white-space:pre-wrap;""> for i in [1, 2, 3]:
   a *= 2
   a -= 5</a><a style=""""></a></div></div>",7,7,1,26,"for i in [1, 2, 3]:
   a *= 2
   a -= 5",7,1
,html-keyboard-response,438,1538291,0.0-12.0-10.0-2.0-0.0,784,"<div><div style=""""><a style=""white-space:pre-wrap;""> for i in [1, 2, 3]:
   a *= 2
   a -= 5</a><a style=""""></a></div></div>",14,14,1,26,"for i in [1, 2, 3]:
   a *= 2
   a -= 5",14,2
,html-keyboard-response,439,1544678,0.0-12.0-10.0-3.0-0.0,5884,"<div><div style=""""><a style=""white-space:pre-wrap;""> for i in [1, 2, 3]:
   a *= 2
   a -= 5</a><a style=""""></a></div></div>",9,9,1,26,"for i in [1, 2, 3]:
   a *= 2
   a -= 5",9,3
,html-keyboard-response,440,1548228,0.0-12.0-10.0-4.0-0.0,3036,"<div><div style=""""><a style=""white-space:pre-wrap;""> for i in [1, 2, 3]:
   a *= 2
   a -= 5</a><a style=""""></a></div></div>",18,18,1,26,"for i in [1, 2, 3]:
   a *= 2
   a -= 5",18,4
,html-keyboard-response,441,1550961,0.0-12.0-10.0-5.0-0.0,2223,"<div><div style=""""><a style=""white-space:pre-wrap;""> for i in [1, 2, 3]:
   a *= 2
   a -= 5</a><a style=""""></a></div></div>",13,13,1,26,"for i in [1, 2, 3]:
   a *= 2
   a -= 5",13,5
,html-keyboard-response,442,1552388,0.0-12.0-10.0-6.0-0.0,924,"<div><div style=""""><a style=""white-space:pre-wrap;""> for i in [1, 2, 3]:
   a *= 2
   a -= 5</a><a style=""""></a></div></div>",backspace,,1,,,backspace,
,html-keyboard-response,443,1555086,0.0-12.0-11.0-0.0-0.0,2194,"<div><div style=""""><a style=""white-space:pre-wrap;""> for i in [1, 2, 3]:
   a += 4
   a -= 7</a><a style=""""></a></div></div>",17,17,1,27,"for i in [1, 2, 3]:
   a += 4
   a -= 7",17,0
