success,trial_type,trial_index,time_elapsed,internal_node_id,rt,stimulus,response,expected_response,correct,uid,text1,correct_response,loop_step
TRUE,fullscreen,0,4396,0.0-0.0,,,,,,,,,
,html-keyboard-response,1,6939,0.0-1.0,2538,Please make sure that your keyboard is in English mode. Press 'A' to continue,a,,,,,,
,html-keyboard-response,2,8840,0.0-2.0-1.0,1899,"<p style=""font-size: 25px;"">Please press space to start the next program<br>>>>>>></p>", ,,,,,,
,html-keyboard-response,3,13053,0.0-2.0-2.0,4210,"<div><div style="" font-size:25px; color:green;""><a style=""white-space:pre-wrap;""> a = 18</a><a style=""""></a></div></div>",,null,,28,a = 18,,
,html-keyboard-response,4,16515,0.0-2.0-4.0-0.0-0.0,2947,"<div><div style=""""><a style=""white-space:pre-wrap;""> for i in [1, 2]:
   a /= 3
   a *= 2</a><a style=""""></a></div></div>",6,,1,,,6,0
,html-keyboard-response,5,17934,0.0-2.0-4.0-1.0-0.0,911,"<div><div style=""""><a style=""white-space:pre-wrap;""> for i in [1, 2]:
   a /= 3
   a *= 2</a><a style=""""></a></div></div>",12,,1,,,12,1
,html-keyboard-response,6,19950,0.0-2.0-4.0-2.0-0.0,1505,"<div><div style=""""><a style=""white-space:pre-wrap;""> for i in [1, 2]:
   a /= 3
   a *= 2</a><a style=""""></a></div></div>",4,,1,,,4,2
,html-keyboard-response,7,22658,0.0-2.0-4.0-3.0-0.0,2203,"<div><div style=""""><a style=""white-space:pre-wrap;""> for i in [1, 2]:
   a /= 3
   a *= 2</a><a style=""""></a></div></div>",8,,1,,,8,3
,html-keyboard-response,8,23507,0.0-2.0-4.0-4.0-0.0,334,"<div><div style=""""><a style=""white-space:pre-wrap;""> for i in [1, 2]:
   a /= 3
   a *= 2</a><a style=""""></a></div></div>",backspace,,1,,,backspace,
,html-keyboard-response,9,27991,0.0-2.0-5.0-0.0-0.0,3971,"<div><div style=""""><a style=""white-space:pre-wrap;""> while a >= 2:
   a /= 2</a><a style=""""></a></div></div>",4,,1,,,4,0
,html-keyboard-response,10,29719,0.0-2.0-5.0-1.0-0.0,1218,"<div><div style=""""><a style=""white-space:pre-wrap;""> while a >= 2:
   a /= 2</a><a style=""""></a></div></div>",2,,1,,,2,1
,html-keyboard-response,11,32369,0.0-2.0-5.0-2.0-0.0,2142,"<div><div style=""""><a style=""white-space:pre-wrap;""> while a >= 2:
   a /= 2</a><a style=""""></a></div></div>",1,,1,,,1,2
,html-keyboard-response,12,33709,0.0-2.0-5.0-3.0-0.0,836,"<div><div style=""""><a style=""white-space:pre-wrap;""> while a >= 2:
   a /= 2</a><a style=""""></a></div></div>",backspace,,1,,,backspace,
,html-keyboard-response,13,37574,0.0-2.0-6.0-0.0-0.0,3357,"<div><div style=""""><a style=""white-space:pre-wrap;""> while a <= 7:
   a += 2</a><a style=""""></a></div></div>",3,,1,,,3,0
,html-keyboard-response,14,39802,0.0-2.0-6.0-1.0-0.0,1716,"<div><div style=""""><a style=""white-space:pre-wrap;""> while a <= 7:
   a += 2</a><a style=""""></a></div></div>",5,,1,,,5,1
,html-keyboard-response,15,42093,0.0-2.0-6.0-2.0-0.0,1778,"<div><div style=""""><a style=""white-space:pre-wrap;""> while a <= 7:
   a += 2</a><a style=""""></a></div></div>",7,,1,,,7,2
,html-keyboard-response,16,44173,0.0-2.0-6.0-3.0-0.0,1569,"<div><div style=""""><a style=""white-space:pre-wrap;""> while a <= 7:
   a += 2</a><a style=""""></a></div></div>",9,,1,,,9,3
,html-keyboard-response,17,45029,0.0-2.0-6.0-4.0-0.0,343,"<div><div style=""""><a style=""white-space:pre-wrap;""> while a <= 7:
   a += 2</a><a style=""""></a></div></div>",backspace,,1,,,backspace,
,html-keyboard-response,18,49878,0.0-2.0-7.0-0.0-0.0,4342,"<div><div style=""""><a style=""white-space:pre-wrap;""> while a >= 6:
   a += 9
   a /= 3</a><a style=""""></a></div></div>",18,,1,,,18,0
,html-keyboard-response,19,52298,0.0-2.0-7.0-1.0-0.0,1915,"<div><div style=""""><a style=""white-space:pre-wrap;""> while a >= 6:
   a += 9
   a /= 3</a><a style=""""></a></div></div>",6,,1,,,6,1
,html-keyboard-response,20,58063,0.0-2.0-7.0-2.0-0.0,5258,"<div><div style=""""><a style=""white-space:pre-wrap;""> while a >= 6:
   a += 9
   a /= 3</a><a style=""""></a></div></div>",15,,1,,,15,2
,html-keyboard-response,21,59106,0.0-2.0-7.0-3.0-0.0,530,"<div><div style=""""><a style=""white-space:pre-wrap;""> while a >= 6:
   a += 9
   a /= 3</a><a style=""""></a></div></div>",5,,1,,,5,3
,html-keyboard-response,22,60685,0.0-2.0-7.0-4.0-0.0,1072,"<div><div style=""""><a style=""white-space:pre-wrap;""> while a >= 6:
   a += 9
   a /= 3</a><a style=""""></a></div></div>",backspace,,1,,,backspace,
,html-keyboard-response,23,75890,0.0-2.0-8.0-0.0-0.0,14699,"<div><div style=""""><a style=""white-space:pre-wrap;""> while a <= 11:
   a = round_down(a*1.5)</a><a style=""""></a></div></div>",7,,1,,,7,0
,html-keyboard-response,24,87229,0.0-2.0-8.0-1.0-0.0,10825,"<div><div style=""""><a style=""white-space:pre-wrap;""> while a <= 11:
   a = round_down(a*1.5)</a><a style=""""></a></div></div>",10,,1,,,10,1
,html-keyboard-response,25,92587,0.0-2.0-8.0-2.0-0.0,4852,"<div><div style=""""><a style=""white-space:pre-wrap;""> while a <= 11:
   a = round_down(a*1.5)</a><a style=""""></a></div></div>",15,,1,,,15,2
,html-keyboard-response,26,93790,0.0-2.0-8.0-3.0-0.0,692,"<div><div style=""""><a style=""white-space:pre-wrap;""> while a <= 11:
   a = round_down(a*1.5)</a><a style=""""></a></div></div>",backspace,,1,,,backspace,
,html-keyboard-response,27,115388,0.0-2.0-9.0-0.0-0.0,21082,"<div><div style=""""><a style=""white-space:pre-wrap;""> for i in [1, 2]:
   a = average(a,3)</a><a style=""""></a></div></div>",backspace,,0,,,9,0
,html-keyboard-response,29,123953,0.0-2.0-9.0-1.0-0.0,4554,"<div><div style=""""><a style=""white-space:pre-wrap;""> for i in [1, 2]:
   a = average(a,3)</a><a style=""""></a></div></div>",6,,1,,,6,1
,html-keyboard-response,30,126825,0.0-2.0-9.0-2.0-0.0,2358,"<div><div style=""""><a style=""white-space:pre-wrap;""> for i in [1, 2]:
   a = average(a,3)</a><a style=""""></a></div></div>",backspace,,1,,,backspace,
,html-keyboard-response,31,133065,0.0-2.0-10.0-0.0-0.0,5724,"<div><div style=""""><a style=""white-space:pre-wrap;""> for i in [1, 2, 3]:
   a *= 2
   a -= 5</a><a style=""""></a></div></div>",12,,1,,,12,0
,html-keyboard-response,32,135005,0.0-2.0-10.0-1.0-0.0,1432,"<div><div style=""""><a style=""white-space:pre-wrap;""> for i in [1, 2, 3]:
   a *= 2
   a -= 5</a><a style=""""></a></div></div>",7,,1,,,7,1
,html-keyboard-response,33,141008,0.0-2.0-10.0-2.0-0.0,5495,"<div><div style=""""><a style=""white-space:pre-wrap;""> for i in [1, 2, 3]:
   a *= 2
   a -= 5</a><a style=""""></a></div></div>",14,,1,,,14,2
,html-keyboard-response,34,143403,0.0-2.0-10.0-3.0-0.0,1890,"<div><div style=""""><a style=""white-space:pre-wrap;""> for i in [1, 2, 3]:
   a *= 2
   a -= 5</a><a style=""""></a></div></div>",9,,1,,,9,3
,html-keyboard-response,35,145634,0.0-2.0-10.0-4.0-0.0,1720,"<div><div style=""""><a style=""white-space:pre-wrap;""> for i in [1, 2, 3]:
   a *= 2
   a -= 5</a><a style=""""></a></div></div>",18,,1,,,18,4
,html-keyboard-response,36,148752,0.0-2.0-10.0-5.0-0.0,2604,"<div><div style=""""><a style=""white-space:pre-wrap;""> for i in [1, 2, 3]:
   a *= 2
   a -= 5</a><a style=""""></a></div></div>",13,,1,,,13,5
,html-keyboard-response,37,149761,0.0-2.0-10.0-6.0-0.0,501,"<div><div style=""""><a style=""white-space:pre-wrap;""> for i in [1, 2, 3]:
   a *= 2
   a -= 5</a><a style=""""></a></div></div>",backspace,,1,,,backspace,
,html-keyboard-response,38,156312,0.0-2.0-11.0-0.0-0.0,6035,"<div><div style=""""><a style=""white-space:pre-wrap;""> while a >= 6:
   a += 4
   a -= 7</a><a style=""""></a></div></div>",17,,1,,,17,0
,html-keyboard-response,39,158439,0.0-2.0-11.0-1.0-0.0,1612,"<div><div style=""""><a style=""white-space:pre-wrap;""> while a >= 6:
   a += 4
   a -= 7</a><a style=""""></a></div></div>",10,,1,,,10,1
,html-keyboard-response,40,161759,0.0-2.0-11.0-2.0-0.0,2814,"<div><div style=""""><a style=""white-space:pre-wrap;""> while a >= 6:
   a += 4
   a -= 7</a><a style=""""></a></div></div>",14,,1,,,14,2
,html-keyboard-response,41,164035,0.0-2.0-11.0-3.0-0.0,1769,"<div><div style=""""><a style=""white-space:pre-wrap;""> while a >= 6:
   a += 4
   a -= 7</a><a style=""""></a></div></div>",7,,1,,,7,3
,html-keyboard-response,42,165992,0.0-2.0-11.0-4.0-0.0,1450,"<div><div style=""""><a style=""white-space:pre-wrap;""> while a >= 6:
   a += 4
   a -= 7</a><a style=""""></a></div></div>",11,,1,,,11,4
,html-keyboard-response,43,171033,0.0-2.0-11.0-5.0-0.0,4538,"<div><div style=""""><a style=""white-space:pre-wrap;""> while a >= 6:
   a += 4
   a -= 7</a><a style=""""></a></div></div>",4,,1,,,4,5
,html-keyboard-response,44,172292,0.0-2.0-11.0-6.0-0.0,743,"<div><div style=""""><a style=""white-space:pre-wrap;""> while a >= 6:
   a += 4
   a -= 7</a><a style=""""></a></div></div>",backspace,,1,,,backspace,
,html-keyboard-response,45,178292,0.0-3.0-1.0,5490,"<p style=""font-size: 25px;"">Please press space to start the next program<br>>>>>>></p>", ,,,,,,
,html-keyboard-response,46,183679,0.0-3.0-2.0,5385,"<div><div style="" font-size:25px; color:green;""><a style=""white-space:pre-wrap;""> a = 8</a><a style=""""></a></div></div>",,null,,37,a = 8,,
,html-keyboard-response,47,188211,0.0-3.0-4.0-0.0-0.0,4030,"<div><div style=""""><a style=""white-space:pre-wrap;""> for i in [1, 2, 3]:
   a -= 2
   a += 6</a><a style=""""></a></div></div>",6,,1,,,6,0
,html-keyboard-response,48,189655,0.0-3.0-4.0-1.0-0.0,933,"<div><div style=""""><a style=""white-space:pre-wrap;""> for i in [1, 2, 3]:
   a -= 2
   a += 6</a><a style=""""></a></div></div>",12,,1,,,12,1
,html-keyboard-response,49,191745,0.0-3.0-4.0-2.0-0.0,1582,"<div><div style=""""><a style=""white-space:pre-wrap;""> for i in [1, 2, 3]:
   a -= 2
   a += 6</a><a style=""""></a></div></div>",10,,1,,,10,2
,html-keyboard-response,50,193127,0.0-3.0-4.0-3.0-0.0,875,"<div><div style=""""><a style=""white-space:pre-wrap;""> for i in [1, 2, 3]:
   a -= 2
   a += 6</a><a style=""""></a></div></div>",16,,1,,,16,3
,html-keyboard-response,51,197496,0.0-3.0-4.0-4.0-0.0,3852,"<div><div style=""""><a style=""white-space:pre-wrap;""> for i in [1, 2, 3]:
   a -= 2
   a += 6</a><a style=""""></a></div></div>",14,,1,,,14,4
,html-keyboard-response,52,198818,0.0-3.0-4.0-5.0-0.0,805,"<div><div style=""""><a style=""white-space:pre-wrap;""> for i in [1, 2, 3]:
   a -= 2
   a += 6</a><a style=""""></a></div></div>",20,,1,,,20,5
,html-keyboard-response,53,199976,0.0-3.0-4.0-6.0-0.0,641,"<div><div style=""""><a style=""white-space:pre-wrap;""> for i in [1, 2, 3]:
   a -= 2
   a += 6</a><a style=""""></a></div></div>",backspace,,1,,,backspace,
,html-keyboard-response,54,206640,0.0-3.0-5.0-0.0-0.0,6152,"<div><div style=""""><a style=""white-space:pre-wrap;""> while a >= 8:
   a /= 2</a><a style=""""></a></div></div>",10,,1,,,10,0
,html-keyboard-response,55,209835,0.0-3.0-5.0-1.0-0.0,2682,"<div><div style=""""><a style=""white-space:pre-wrap;""> while a >= 8:
   a /= 2</a><a style=""""></a></div></div>",5,,1,,,5,1
,html-keyboard-response,56,210973,0.0-3.0-5.0-2.0-0.0,621,"<div><div style=""""><a style=""white-space:pre-wrap;""> while a >= 8:
   a /= 2</a><a style=""""></a></div></div>",backspace,,1,,,backspace,
,html-keyboard-response,57,225896,0.0-3.0-6.0-0.0-0.0,14416,"<div><div style=""""><a style=""white-space:pre-wrap;""> while a <= 15:
   a = round_up(a*1.5)</a><a style=""""></a></div></div>",7,,0,,,8,0
,html-keyboard-response,59,234533,0.0-3.0-6.0-1.0-0.0,4618,"<div><div style=""""><a style=""white-space:pre-wrap;""> while a <= 15:
   a = round_up(a*1.5)</a><a style=""""></a></div></div>",12,,1,,,12,1
,html-keyboard-response,60,247692,0.0-3.0-6.0-2.0-0.0,12647,"<div><div style=""""><a style=""white-space:pre-wrap;""> while a <= 15:
   a = round_up(a*1.5)</a><a style=""""></a></div></div>",18,,1,,,18,2
,html-keyboard-response,61,248597,0.0-3.0-6.0-3.0-0.0,397,"<div><div style=""""><a style=""white-space:pre-wrap;""> while a <= 15:
   a = round_up(a*1.5)</a><a style=""""></a></div></div>",backspace,,1,,,backspace,
,html-keyboard-response,62,253744,0.0-3.0-7.0-0.0-0.0,4640,"<div><div style=""""><a style=""white-space:pre-wrap;""> while a >= 4:
   a = average(a,2)</a><a style=""""></a></div></div>",10,,1,,,10,0
,html-keyboard-response,63,258613,0.0-3.0-7.0-1.0-0.0,4360,"<div><div style=""""><a style=""white-space:pre-wrap;""> while a >= 4:
   a = average(a,2)</a><a style=""""></a></div></div>",6,,1,,,6,1
,html-keyboard-response,64,263035,0.0-3.0-7.0-2.0-0.0,3914,"<div><div style=""""><a style=""white-space:pre-wrap;""> while a >= 4:
   a = average(a,2)</a><a style=""""></a></div></div>",4,,1,,,4,2
,html-keyboard-response,65,268058,0.0-3.0-7.0-3.0-0.0,4511,"<div><div style=""""><a style=""white-space:pre-wrap;""> while a >= 4:
   a = average(a,2)</a><a style=""""></a></div></div>",3,,1,,,3,3
,html-keyboard-response,66,269333,0.0-3.0-7.0-4.0-0.0,770,"<div><div style=""""><a style=""white-space:pre-wrap;""> while a >= 4:
   a = average(a,2)</a><a style=""""></a></div></div>",backspace,,1,,,backspace,
,html-keyboard-response,67,272913,0.0-3.0-8.0-0.0-0.0,3071,"<div><div style=""""><a style=""white-space:pre-wrap;""> for i in [1, 2]:
   a += 7
   a /= 2</a><a style=""""></a></div></div>",10,,1,,,10,0
,html-keyboard-response,68,279733,0.0-3.0-8.0-1.0-0.0,6307,"<div><div style=""""><a style=""white-space:pre-wrap;""> for i in [1, 2]:
   a += 7
   a /= 2</a><a style=""""></a></div></div>",5,,1,,,5,1
,html-keyboard-response,69,285718,0.0-3.0-8.0-2.0-0.0,5470,"<div><div style=""""><a style=""white-space:pre-wrap;""> for i in [1, 2]:
   a += 7
   a /= 2</a><a style=""""></a></div></div>",12,,1,,,12,2
,html-keyboard-response,70,287533,0.0-3.0-8.0-3.0-0.0,1306,"<div><div style=""""><a style=""white-space:pre-wrap;""> for i in [1, 2]:
   a += 7
   a /= 2</a><a style=""""></a></div></div>",6,,1,,,6,3
,html-keyboard-response,71,288473,0.0-3.0-8.0-4.0-0.0,422,"<div><div style=""""><a style=""white-space:pre-wrap;""> for i in [1, 2]:
   a += 7
   a /= 2</a><a style=""""></a></div></div>",backspace,,1,,,backspace,
,html-keyboard-response,72,297816,0.0-3.0-9.0-0.0-0.0,8836,"<div><div style=""""><a style=""white-space:pre-wrap;""> for i in [1, 2, 3, 4]:
   a += 3</a><a style=""""></a></div></div>",9,,1,,,9,0
,html-keyboard-response,73,302117,0.0-3.0-9.0-1.0-0.0,3793,"<div><div style=""""><a style=""white-space:pre-wrap;""> for i in [1, 2, 3, 4]:
   a += 3</a><a style=""""></a></div></div>",12,,1,,,12,1
,html-keyboard-response,74,304128,0.0-3.0-9.0-2.0-0.0,1504,"<div><div style=""""><a style=""white-space:pre-wrap;""> for i in [1, 2, 3, 4]:
   a += 3</a><a style=""""></a></div></div>",15,,1,,,15,2
,html-keyboard-response,75,306997,0.0-3.0-9.0-3.0-0.0,2364,"<div><div style=""""><a style=""white-space:pre-wrap;""> for i in [1, 2, 3, 4]:
   a += 3</a><a style=""""></a></div></div>",18,,1,,,18,3
,html-keyboard-response,76,311812,0.0-3.0-9.0-4.0-0.0,4313,"<div><div style=""""><a style=""white-space:pre-wrap;""> for i in [1, 2, 3, 4]:
   a += 3</a><a style=""""></a></div></div>",100,,0,,,backspace,
,html-keyboard-response,77,315834,0.0-3.0-9.0-4.0-1.0-0.0,null,"<div><p style=""font-size:25px; color:green;"">end of loop<br>>>>>>></p>
						<div>Hit the ""end loop"" key to continue</div></div>",null,,,,,,
,html-keyboard-response,78,316731,0.0-3.0-9.0-4.1-0.1,892,"<div><div style=""""><a style=""white-space:pre-wrap;""> for i in [1, 2, 3, 4]:
   a += 3</a><a style=""""></a></div></div>",backspace,,1,,,backspace,
,html-keyboard-response,79,323190,0.0-3.0-10.0-0.0-0.0,5941,"<div><div style=""""><a style=""white-space:pre-wrap;""> for i in [1, 2]:
   a /= 3
   a *= 2</a><a style=""""></a></div></div>",6,,1,,,6,0
,html-keyboard-response,80,324756,0.0-3.0-10.0-1.0-0.0,1058,"<div><div style=""""><a style=""white-space:pre-wrap;""> for i in [1, 2]:
   a /= 3
   a *= 2</a><a style=""""></a></div></div>",12,,1,,,12,1
,html-keyboard-response,81,327827,0.0-3.0-10.0-2.0-0.0,2568,"<div><div style=""""><a style=""white-space:pre-wrap;""> for i in [1, 2]:
   a /= 3
   a *= 2</a><a style=""""></a></div></div>",4,,1,,,4,2
,html-keyboard-response,82,330274,0.0-3.0-10.0-3.0-0.0,1937,"<div><div style=""""><a style=""white-space:pre-wrap;""> for i in [1, 2]:
   a /= 3
   a *= 2</a><a style=""""></a></div></div>",8,,1,,,8,3
,html-keyboard-response,83,331713,0.0-3.0-10.0-4.0-0.0,924,"<div><div style=""""><a style=""white-space:pre-wrap;""> for i in [1, 2]:
   a /= 3
   a *= 2</a><a style=""""></a></div></div>",backspace,,1,,,backspace,
,html-keyboard-response,84,341750,0.0-3.0-11.0-0.0-0.0,9529,"<div><div style=""""><a style=""white-space:pre-wrap;""> while a >= 3:
   a *= 2
   a -= 9</a><a style=""""></a></div></div>",16,,1,,,16,0
,html-keyboard-response,85,351145,0.0-3.0-11.0-1.0-0.0,8880,"<div><div style=""""><a style=""white-space:pre-wrap;""> while a >= 3:
   a *= 2
   a -= 9</a><a style=""""></a></div></div>",7,,1,,,7,1
,html-keyboard-response,86,353955,0.0-3.0-11.0-2.0-0.0,2303,"<div><div style=""""><a style=""white-space:pre-wrap;""> while a >= 3:
   a *= 2
   a -= 9</a><a style=""""></a></div></div>",14,,1,,,14,2
,html-keyboard-response,87,366244,0.0-3.0-11.0-3.0-0.0,11782,"<div><div style=""""><a style=""white-space:pre-wrap;""> while a >= 3:
   a *= 2
   a -= 9</a><a style=""""></a></div></div>",5,,1,,,5,3
,html-keyboard-response,88,368915,0.0-3.0-11.0-4.0-0.0,2163,"<div><div style=""""><a style=""white-space:pre-wrap;""> while a >= 3:
   a *= 2
   a -= 9</a><a style=""""></a></div></div>",10,,1,,,10,4
,html-keyboard-response,89,370060,0.0-3.0-11.0-5.0-0.0,627,"<div><div style=""""><a style=""white-space:pre-wrap;""> while a >= 3:
   a *= 2
   a -= 9</a><a style=""""></a></div></div>",1,,1,,,1,5
,html-keyboard-response,90,371205,0.0-3.0-11.0-6.0-0.0,639,"<div><div style=""""><a style=""white-space:pre-wrap;""> while a >= 3:
   a *= 2
   a -= 9</a><a style=""""></a></div></div>",backspace,,1,,,backspace,
,html-keyboard-response,91,403410,0.0-4.0-0.0-0.0,31692,"<p style=""position:absolute; top:30%; font-size:25px; color:green;"" >Take a short break now</p>", ,,,,,,
,html-keyboard-response,92,406705,0.0-4.0-1.0,3293,"<p style=""font-size: 25px;"">Please press space to start the next program<br>>>>>>></p>", ,,,,,,
,html-keyboard-response,93,410185,0.0-4.0-2.0,3478,"<div><div style="" font-size:25px; color:green;""><a style=""white-space:pre-wrap;""> a = 7</a><a style=""""></a></div></div>",,null,,10,a = 7,,
,html-keyboard-response,94,414016,0.0-4.0-4.0-0.0-0.0,3320,"<div><div style=""""><a style=""white-space:pre-wrap;""> while a <= 14:
   a *= 2
   a -= 4</a><a style=""""></a></div></div>",14,,1,,,14,0
,html-keyboard-response,95,415962,0.0-4.0-4.0-1.0-0.0,1436,"<div><div style=""""><a style=""white-space:pre-wrap;""> while a <= 14:
   a *= 2
   a -= 4</a><a style=""""></a></div></div>",10,,1,,,10,1
,html-keyboard-response,96,422075,0.0-4.0-4.0-2.0-0.0,5597,"<div><div style=""""><a style=""white-space:pre-wrap;""> while a <= 14:
   a *= 2
   a -= 4</a><a style=""""></a></div></div>",20,,1,,,20,2
,html-keyboard-response,97,423038,0.0-4.0-4.0-3.0-0.0,455,"<div><div style=""""><a style=""white-space:pre-wrap;""> while a <= 14:
   a *= 2
   a -= 4</a><a style=""""></a></div></div>",16,,1,,,16,3
,html-keyboard-response,98,424216,0.0-4.0-4.0-4.0-0.0,671,"<div><div style=""""><a style=""white-space:pre-wrap;""> while a <= 14:
   a *= 2
   a -= 4</a><a style=""""></a></div></div>",backspace,,1,,,backspace,
,html-keyboard-response,99,428824,0.0-4.0-5.0-0.0-0.0,4098,"<div><div style=""""><a style=""white-space:pre-wrap;""> for i in [1, 2, 3]:
   a /= 4
   a *= 2</a><a style=""""></a></div></div>",4,,1,,,4,0
,html-keyboard-response,100,430391,0.0-4.0-5.0-1.0-0.0,1060,"<div><div style=""""><a style=""white-space:pre-wrap;""> for i in [1, 2, 3]:
   a /= 4
   a *= 2</a><a style=""""></a></div></div>",8,,1,,,8,1
,html-keyboard-response,101,433326,0.0-4.0-5.0-2.0-0.0,2424,"<div><div style=""""><a style=""white-space:pre-wrap;""> for i in [1, 2, 3]:
   a /= 4
   a *= 2</a><a style=""""></a></div></div>",2,,1,,,2,2
,html-keyboard-response,102,434729,0.0-4.0-5.0-3.0-0.0,892,"<div><div style=""""><a style=""white-space:pre-wrap;""> for i in [1, 2, 3]:
   a /= 4
   a *= 2</a><a style=""""></a></div></div>",4,,1,,,4,3
,html-keyboard-response,103,436190,0.0-4.0-5.0-4.0-0.0,958,"<div><div style=""""><a style=""white-space:pre-wrap;""> for i in [1, 2, 3]:
   a /= 4
   a *= 2</a><a style=""""></a></div></div>",1,,1,,,1,4
,html-keyboard-response,104,437038,0.0-4.0-5.0-5.0-0.0,344,"<div><div style=""""><a style=""white-space:pre-wrap;""> for i in [1, 2, 3]:
   a /= 4
   a *= 2</a><a style=""""></a></div></div>",2,,1,,,2,5
,html-keyboard-response,105,437898,0.0-4.0-5.0-6.0-0.0,354,"<div><div style=""""><a style=""white-space:pre-wrap;""> for i in [1, 2, 3]:
   a /= 4
   a *= 2</a><a style=""""></a></div></div>",backspace,,1,,,backspace,
,html-keyboard-response,106,443300,0.0-4.0-6.0-0.0-0.0,4889,"<div><div style=""""><a style=""white-space:pre-wrap;""> for i in [1, 2]:
   a = round_up(a*2.5)</a><a style=""""></a></div></div>",5,,1,,,5,0
,html-keyboard-response,107,455476,0.0-4.0-6.0-1.0-0.0,11664,"<div><div style=""""><a style=""white-space:pre-wrap;""> for i in [1, 2]:
   a = round_up(a*2.5)</a><a style=""""></a></div></div>",13,,1,,,13,1
,html-keyboard-response,108,456860,0.0-4.0-6.0-2.0-0.0,866,"<div><div style=""""><a style=""white-space:pre-wrap;""> for i in [1, 2]:
   a = round_up(a*2.5)</a><a style=""""></a></div></div>",backspace,,1,,,backspace,
,html-keyboard-response,109,462007,0.0-4.0-7.0-0.0-0.0,4631,"<div><div style=""""><a style=""white-space:pre-wrap;""> for i in [1, 2, 3]:
   a = average(a,5)</a><a style=""""></a></div></div>",9,,1,,,9,0
,html-keyboard-response,110,472215,0.0-4.0-7.0-1.0-0.0,9692,"<div><div style=""""><a style=""white-space:pre-wrap;""> for i in [1, 2, 3]:
   a = average(a,5)</a><a style=""""></a></div></div>",7,,1,,,7,1
,html-keyboard-response,111,476228,0.0-4.0-7.0-2.0-0.0,3506,"<div><div style=""""><a style=""white-space:pre-wrap;""> for i in [1, 2, 3]:
   a = average(a,5)</a><a style=""""></a></div></div>",6,,1,,,6,2
,html-keyboard-response,112,477540,0.0-4.0-7.0-3.0-0.0,808,"<div><div style=""""><a style=""white-space:pre-wrap;""> for i in [1, 2, 3]:
   a = average(a,5)</a><a style=""""></a></div></div>",backspace,,1,,,backspace,
,html-keyboard-response,113,483373,0.0-4.0-8.0-0.0-0.0,5319,"<div><div style=""""><a style=""white-space:pre-wrap;""> for i in [1, 2]:
   a += 2
   a /= 2</a><a style=""""></a></div></div>",8,,1,,,8,0
,html-keyboard-response,114,484358,0.0-4.0-8.0-1.0-0.0,477,"<div><div style=""""><a style=""white-space:pre-wrap;""> for i in [1, 2]:
   a += 2
   a /= 2</a><a style=""""></a></div></div>",4,,1,,,4,1
,html-keyboard-response,115,485456,0.0-4.0-8.0-2.0-0.0,588,"<div><div style=""""><a style=""white-space:pre-wrap;""> for i in [1, 2]:
   a += 2
   a /= 2</a><a style=""""></a></div></div>",6,,1,,,6,2
,html-keyboard-response,116,488682,0.0-4.0-8.0-3.0-0.0,2716,"<div><div style=""""><a style=""white-space:pre-wrap;""> for i in [1, 2]:
   a += 2
   a /= 2</a><a style=""""></a></div></div>",3,,1,,,3,3
,html-keyboard-response,117,489672,0.0-4.0-8.0-4.0-0.0,476,"<div><div style=""""><a style=""white-space:pre-wrap;""> for i in [1, 2]:
   a += 2
   a /= 2</a><a style=""""></a></div></div>",backspace,,1,,,backspace,
,html-keyboard-response,118,497518,0.0-4.0-9.0-0.0-0.0,7339,"<div><div style=""""><a style=""white-space:pre-wrap;""> while a <= 9:
   a *= 2</a><a style=""""></a></div></div>",6,,1,,,6,0
,html-keyboard-response,119,503082,0.0-4.0-9.0-1.0-0.0,5048,"<div><div style=""""><a style=""white-space:pre-wrap;""> while a <= 9:
   a *= 2</a><a style=""""></a></div></div>",12,,1,,,12,1
,html-keyboard-response,120,504172,0.0-4.0-9.0-2.0-0.0,586,"<div><div style=""""><a style=""white-space:pre-wrap;""> while a <= 9:
   a *= 2</a><a style=""""></a></div></div>",backspace,,1,,,backspace,
,html-keyboard-response,121,507828,0.0-4.0-10.0-0.0-0.0,3144,"<div><div style=""""><a style=""white-space:pre-wrap;""> while a <= 14:
   a += 6
   a -= 4</a><a style=""""></a></div></div>",18,,1,,,18,0
,html-keyboard-response,122,511063,0.0-4.0-10.0-1.0-0.0,2729,"<div><div style=""""><a style=""white-space:pre-wrap;""> while a <= 14:
   a += 6
   a -= 4</a><a style=""""></a></div></div>",14,,1,,,14,1
,html-keyboard-response,123,515220,0.0-4.0-10.0-2.0-0.0,3645,"<div><div style=""""><a style=""white-space:pre-wrap;""> while a <= 14:
   a += 6
   a -= 4</a><a style=""""></a></div></div>",20,,1,,,20,2
,html-keyboard-response,124,518739,0.0-4.0-10.0-3.0-0.0,3009,"<div><div style=""""><a style=""white-space:pre-wrap;""> while a <= 14:
   a += 6
   a -= 4</a><a style=""""></a></div></div>",16,,1,,,16,3
,html-keyboard-response,125,519633,0.0-4.0-10.0-4.0-0.0,384,"<div><div style=""""><a style=""white-space:pre-wrap;""> while a <= 14:
   a += 6
   a -= 4</a><a style=""""></a></div></div>",backspace,,1,,,backspace,
,html-keyboard-response,126,527692,0.0-4.0-11.0-0.0-0.0,7544,"<div><div style=""""><a style=""white-space:pre-wrap;""> for i in [1, 2, 3, 4]:
   a -= 3</a><a style=""""></a></div></div>",11,,0,,,13,0
,html-keyboard-response,128,533869,0.0-4.0-11.0-1.0-0.0,2157,"<div><div style=""""><a style=""white-space:pre-wrap;""> for i in [1, 2, 3, 4]:
   a -= 3</a><a style=""""></a></div></div>",10,,1,,,10,1
,html-keyboard-response,129,537652,0.0-4.0-11.0-2.0-0.0,3271,"<div><div style=""""><a style=""white-space:pre-wrap;""> for i in [1, 2, 3, 4]:
   a -= 3</a><a style=""""></a></div></div>",7,,1,,,7,2
,html-keyboard-response,130,540689,0.0-4.0-11.0-3.0-0.0,2528,"<div><div style=""""><a style=""white-space:pre-wrap;""> for i in [1, 2, 3, 4]:
   a -= 3</a><a style=""""></a></div></div>",4,,1,,,4,3
,html-keyboard-response,131,541608,0.0-4.0-11.0-4.0-0.0,416,"<div><div style=""""><a style=""white-space:pre-wrap;""> for i in [1, 2, 3, 4]:
   a -= 3</a><a style=""""></a></div></div>",backspace,,1,,,backspace,
,html-keyboard-response,132,545883,0.0-5.0-1.0,3759,"<p style=""font-size: 25px;"">Please press space to start the next program<br>>>>>>></p>", ,,,,,,
,html-keyboard-response,133,550398,0.0-5.0-2.0,4514,"<div><div style="" font-size:25px; color:green;""><a style=""white-space:pre-wrap;""> a = 9</a><a style=""""></a></div></div>",,null,,91,a = 9,,
,html-keyboard-response,134,553590,0.0-5.0-4.0-0.0-0.0,2680,"<div><div style=""""><a style=""white-space:pre-wrap;""> while a >= 2:
   a /= 3</a><a style=""""></a></div></div>",3,,1,,,3,0
,html-keyboard-response,135,561578,0.0-5.0-4.0-1.0-0.0,7478,"<div><div style=""""><a style=""white-space:pre-wrap;""> while a >= 2:
   a /= 3</a><a style=""""></a></div></div>",1,,1,,,1,1
,html-keyboard-response,136,562794,0.0-5.0-4.0-2.0-0.0,699,"<div><div style=""""><a style=""white-space:pre-wrap;""> while a >= 2:
   a /= 3</a><a style=""""></a></div></div>",backspace,,1,,,backspace,
,html-keyboard-response,137,565779,0.0-5.0-5.0-0.0-0.0,2469,"<div><div style=""""><a style=""white-space:pre-wrap;""> for i in [1, 2, 3]:
   a += 6</a><a style=""""></a></div></div>",7,,1,,,7,0
,html-keyboard-response,138,568693,0.0-5.0-5.0-1.0-0.0,2403,"<div><div style=""""><a style=""white-space:pre-wrap;""> for i in [1, 2, 3]:
   a += 6</a><a style=""""></a></div></div>",14,,0,,,13,1
,html-keyboard-response,140,572970,0.0-5.0-5.0-2.0-0.0,262,"<div><div style=""""><a style=""white-space:pre-wrap;""> for i in [1, 2, 3]:
   a += 6</a><a style=""""></a></div></div>",19,,1,,,19,2
,html-keyboard-response,141,574650,0.0-5.0-5.0-3.0-0.0,1174,"<div><div style=""""><a style=""white-space:pre-wrap;""> for i in [1, 2, 3]:
   a += 6</a><a style=""""></a></div></div>",backspace,,1,,,backspace,
,html-keyboard-response,142,583203,0.0-5.0-6.0-0.0-0.0,8047,"<div><div style=""""><a style=""white-space:pre-wrap;""> for i in [1, 2]:
   a += 1
   a -= 8</a><a style=""""></a></div></div>",backspace,,0,,,20,0
,html-keyboard-response,144,590352,0.0-5.0-6.0-1.0-0.0,3132,"<div><div style=""""><a style=""white-space:pre-wrap;""> for i in [1, 2]:
   a += 1
   a -= 8</a><a style=""""></a></div></div>",12,,1,,,12,1
,html-keyboard-response,145,596785,0.0-5.0-6.0-2.0-0.0,5917,"<div><div style=""""><a style=""white-space:pre-wrap;""> for i in [1, 2]:
   a += 1
   a -= 8</a><a style=""""></a></div></div>",13,,1,,,13,2
,html-keyboard-response,146,602772,0.0-5.0-6.0-3.0-0.0,5476,"<div><div style=""""><a style=""white-space:pre-wrap;""> for i in [1, 2]:
   a += 1
   a -= 8</a><a style=""""></a></div></div>",5,,1,,,5,3
,html-keyboard-response,147,603666,0.0-5.0-6.0-4.0-0.0,378,"<div><div style=""""><a style=""white-space:pre-wrap;""> for i in [1, 2]:
   a += 1
   a -= 8</a><a style=""""></a></div></div>",backspace,,1,,,backspace,
,html-keyboard-response,148,607716,0.0-5.0-7.0-0.0-0.0,3540,"<div><div style=""""><a style=""white-space:pre-wrap;""> while a <= 6:
   a *= 3
   a -= 9</a><a style=""""></a></div></div>",15,,1,,,15,0
,html-keyboard-response,149,610681,0.0-5.0-7.0-1.0-0.0,2450,"<div><div style=""""><a style=""white-space:pre-wrap;""> while a <= 6:
   a *= 3
   a -= 9</a><a style=""""></a></div></div>",6,,1,,,6,1
,html-keyboard-response,150,612350,0.0-5.0-7.0-2.0-0.0,1154,"<div><div style=""""><a style=""white-space:pre-wrap;""> while a <= 6:
   a *= 3
   a -= 9</a><a style=""""></a></div></div>",18,,1,,,18,2
,html-keyboard-response,151,614891,0.0-5.0-7.0-3.0-0.0,2034,"<div><div style=""""><a style=""white-space:pre-wrap;""> while a <= 6:
   a *= 3
   a -= 9</a><a style=""""></a></div></div>",9,,1,,,9,3
,html-keyboard-response,152,615684,0.0-5.0-7.0-4.0-0.0,276,"<div><div style=""""><a style=""white-space:pre-wrap;""> while a <= 6:
   a *= 3
   a -= 9</a><a style=""""></a></div></div>",backspace,,1,,,backspace,
,html-keyboard-response,153,619499,0.0-5.0-8.0-0.0-0.0,3310,"<div><div style=""""><a style=""white-space:pre-wrap;""> while a >= 3:
   a = average(a, 1)</a><a style=""""></a></div></div>",5,,1,,,5,0
,html-keyboard-response,154,623480,0.0-5.0-8.0-1.0-0.0,3466,"<div><div style=""""><a style=""white-space:pre-wrap;""> while a >= 3:
   a = average(a, 1)</a><a style=""""></a></div></div>",3,,1,,,3,1
,html-keyboard-response,155,627655,0.0-5.0-8.0-2.0-0.0,3657,"<div><div style=""""><a style=""white-space:pre-wrap;""> while a >= 3:
   a = average(a, 1)</a><a style=""""></a></div></div>",2,,1,,,2,2
,html-keyboard-response,156,629463,0.0-5.0-8.0-3.0-0.0,1296,"<div><div style=""""><a style=""white-space:pre-wrap;""> while a >= 3:
   a = average(a, 1)</a><a style=""""></a></div></div>",backspace,,1,,,backspace,
,html-keyboard-response,157,633414,0.0-5.0-9.0-0.0-0.0,3434,"<div><div style=""""><a style=""white-space:pre-wrap;""> while a <= 9:
   a -= 1
   a *= 5</a><a style=""""></a></div></div>",1,,1,,,1,0
,html-keyboard-response,158,635315,0.0-5.0-9.0-1.0-0.0,1389,"<div><div style=""""><a style=""white-space:pre-wrap;""> while a <= 9:
   a -= 1
   a *= 5</a><a style=""""></a></div></div>",5,,1,,,5,1
,html-keyboard-response,159,638492,0.0-5.0-9.0-2.0-0.0,2662,"<div><div style=""""><a style=""white-space:pre-wrap;""> while a <= 9:
   a -= 1
   a *= 5</a><a style=""""></a></div></div>",4,,1,,,4,2
,html-keyboard-response,160,640411,0.0-5.0-9.0-3.0-0.0,1401,"<div><div style=""""><a style=""white-space:pre-wrap;""> while a <= 9:
   a -= 1
   a *= 5</a><a style=""""></a></div></div>",20,,1,,,20,3
,html-keyboard-response,161,641895,0.0-5.0-9.0-4.0-0.0,974,"<div><div style=""""><a style=""white-space:pre-wrap;""> while a <= 9:
   a -= 1
   a *= 5</a><a style=""""></a></div></div>",backspace,,1,,,backspace,
,html-keyboard-response,162,645617,0.0-5.0-10.0-0.0-0.0,3208,"<div><div style=""""><a style=""white-space:pre-wrap;""> for i in [1, 2, 3]:
   a -= 3</a><a style=""""></a></div></div>",17,,1,,,17,0
,html-keyboard-response,163,647211,0.0-5.0-10.0-1.0-0.0,1084,"<div><div style=""""><a style=""white-space:pre-wrap;""> for i in [1, 2, 3]:
   a -= 3</a><a style=""""></a></div></div>",14,,1,,,14,1
,html-keyboard-response,164,649225,0.0-5.0-10.0-2.0-0.0,1502,"<div><div style=""""><a style=""white-space:pre-wrap;""> for i in [1, 2, 3]:
   a -= 3</a><a style=""""></a></div></div>",11,,1,,,11,2
,html-keyboard-response,165,650623,0.0-5.0-10.0-3.0-0.0,891,"<div><div style=""""><a style=""white-space:pre-wrap;""> for i in [1, 2, 3]:
   a -= 3</a><a style=""""></a></div></div>",backspace,,1,,,backspace,
,html-keyboard-response,166,654447,0.0-5.0-11.0-0.0-0.0,3317,"<div><div style=""""><a style=""white-space:pre-wrap;""> for i in [1, 2]:
   a -= 5</a><a style=""""></a></div></div>",6,,1,,,6,0
,html-keyboard-response,167,656515,0.0-5.0-11.0-1.0-0.0,1558,"<div><div style=""""><a style=""white-space:pre-wrap;""> for i in [1, 2]:
   a -= 5</a><a style=""""></a></div></div>",1,,1,,,1,1
,html-keyboard-response,168,657861,0.0-5.0-11.0-2.0-0.0,842,"<div><div style=""""><a style=""white-space:pre-wrap;""> for i in [1, 2]:
   a -= 5</a><a style=""""></a></div></div>",backspace,,1,,,backspace,
,html-keyboard-response,169,717915,0.0-6.0-0.0-0.0,59548,"<p style=""position:absolute; top:30%; font-size:25px; color:green;"" >Take a short break now</p>", ,,,,,,
,html-keyboard-response,170,725211,0.0-6.0-1.0,7294,"<p style=""font-size: 25px;"">Please press space to start the next program<br>>>>>>></p>", ,,,,,,
,html-keyboard-response,171,728011,0.0-6.0-2.0,2797,"<div><div style="" font-size:25px; color:green;""><a style=""white-space:pre-wrap;""> a = 7</a><a style=""""></a></div></div>",,null,,1,a = 7,,
,html-keyboard-response,172,731102,0.0-6.0-4.0-0.0-0.0,2581,"<div><div style=""""><a style=""white-space:pre-wrap;""> for i in [1, 2]:
   a *= 2
   a -= 4</a><a style=""""></a></div></div>",14,,1,,,14,0
,html-keyboard-response,173,732566,0.0-6.0-4.0-1.0-0.0,906,"<div><div style=""""><a style=""white-space:pre-wrap;""> for i in [1, 2]:
   a *= 2
   a -= 4</a><a style=""""></a></div></div>",10,,1,,,10,1
,html-keyboard-response,174,734263,0.0-6.0-4.0-2.0-0.0,1171,"<div><div style=""""><a style=""white-space:pre-wrap;""> for i in [1, 2]:
   a *= 2
   a -= 4</a><a style=""""></a></div></div>",20,,1,,,20,2
,html-keyboard-response,175,735242,0.0-6.0-4.0-3.0-0.0,473,"<div><div style=""""><a style=""white-space:pre-wrap;""> for i in [1, 2]:
   a *= 2
   a -= 4</a><a style=""""></a></div></div>",16,,1,,,16,3
,html-keyboard-response,176,736302,0.0-6.0-4.0-4.0-0.0,455,"<div><div style=""""><a style=""white-space:pre-wrap;""> for i in [1, 2]:
   a *= 2
   a -= 4</a><a style=""""></a></div></div>",backspace,,1,,,backspace,
,html-keyboard-response,177,739815,0.0-6.0-5.0-0.0-0.0,2999,"<div><div style=""""><a style=""white-space:pre-wrap;""> for i in [1, 2, 3]:
   a /= 4
   a *= 2</a><a style=""""></a></div></div>",4,,1,,,4,0
,html-keyboard-response,178,741218,0.0-6.0-5.0-1.0-0.0,901,"<div><div style=""""><a style=""white-space:pre-wrap;""> for i in [1, 2, 3]:
   a /= 4
   a *= 2</a><a style=""""></a></div></div>",8,,1,,,8,1
,html-keyboard-response,179,742490,0.0-6.0-5.0-2.0-0.0,759,"<div><div style=""""><a style=""white-space:pre-wrap;""> for i in [1, 2, 3]:
   a /= 4
   a *= 2</a><a style=""""></a></div></div>",2,,1,,,2,2
,html-keyboard-response,180,743870,0.0-6.0-5.0-3.0-0.0,869,"<div><div style=""""><a style=""white-space:pre-wrap;""> for i in [1, 2, 3]:
   a /= 4
   a *= 2</a><a style=""""></a></div></div>",4,,1,,,4,3
,html-keyboard-response,181,745673,0.0-6.0-5.0-4.0-0.0,1290,"<div><div style=""""><a style=""white-space:pre-wrap;""> for i in [1, 2, 3]:
   a /= 4
   a *= 2</a><a style=""""></a></div></div>",1,,1,,,1,4
,html-keyboard-response,182,746315,0.0-6.0-5.0-5.0-0.0,128,"<div><div style=""""><a style=""white-space:pre-wrap;""> for i in [1, 2, 3]:
   a /= 4
   a *= 2</a><a style=""""></a></div></div>",2,,1,,,2,5
,html-keyboard-response,183,747111,0.0-6.0-5.0-6.0-0.0,281,"<div><div style=""""><a style=""white-space:pre-wrap;""> for i in [1, 2, 3]:
   a /= 4
   a *= 2</a><a style=""""></a></div></div>",backspace,,1,,,backspace,
,html-keyboard-response,184,750921,0.0-6.0-6.0-0.0-0.0,3291,"<div><div style=""""><a style=""white-space:pre-wrap;""> while a <= 6:
   a = round_up(a*2.5)</a><a style=""""></a></div></div>",5,,1,,,5,0
,html-keyboard-response,185,756824,0.0-6.0-6.0-1.0-0.0,5389,"<div><div style=""""><a style=""white-space:pre-wrap;""> while a <= 6:
   a = round_up(a*2.5)</a><a style=""""></a></div></div>",13,,1,,,13,1
,html-keyboard-response,186,758787,0.0-6.0-6.0-2.0-0.0,1455,"<div><div style=""""><a style=""white-space:pre-wrap;""> while a <= 6:
   a = round_up(a*2.5)</a><a style=""""></a></div></div>",backspace,,1,,,backspace,
,html-keyboard-response,187,761944,0.0-6.0-7.0-0.0-0.0,2640,"<div><div style=""""><a style=""white-space:pre-wrap;""> for i in [1, 2, 3]:
   a = average(a,5)</a><a style=""""></a></div></div>",9,,1,,,9,0
,html-keyboard-response,188,767190,0.0-6.0-7.0-1.0-0.0,4730,"<div><div style=""""><a style=""white-space:pre-wrap;""> for i in [1, 2, 3]:
   a = average(a,5)</a><a style=""""></a></div></div>",7,,1,,,7,1
,html-keyboard-response,189,770005,0.0-6.0-7.0-2.0-0.0,2304,"<div><div style=""""><a style=""white-space:pre-wrap;""> for i in [1, 2, 3]:
   a = average(a,5)</a><a style=""""></a></div></div>",6,,1,,,6,2
,html-keyboard-response,190,770967,0.0-6.0-7.0-3.0-0.0,457,"<div><div style=""""><a style=""white-space:pre-wrap;""> for i in [1, 2, 3]:
   a = average(a,5)</a><a style=""""></a></div></div>",backspace,,1,,,backspace,
,html-keyboard-response,191,774278,0.0-6.0-8.0-0.0-0.0,2805,"<div><div style=""""><a style=""white-space:pre-wrap;""> while a >= 4:
   a += 2
   a /= 2</a><a style=""""></a></div></div>",8,,1,,,8,0
,html-keyboard-response,192,775334,0.0-6.0-8.0-1.0-0.0,544,"<div><div style=""""><a style=""white-space:pre-wrap;""> while a >= 4:
   a += 2
   a /= 2</a><a style=""""></a></div></div>",4,,1,,,4,1
,html-keyboard-response,193,777596,0.0-6.0-8.0-2.0-0.0,1749,"<div><div style=""""><a style=""white-space:pre-wrap;""> while a >= 4:
   a += 2
   a /= 2</a><a style=""""></a></div></div>",6,,1,,,6,2
,html-keyboard-response,194,779647,0.0-6.0-8.0-3.0-0.0,1539,"<div><div style=""""><a style=""white-space:pre-wrap;""> while a >= 4:
   a += 2
   a /= 2</a><a style=""""></a></div></div>",3,,1,,,3,3
,html-keyboard-response,195,781337,0.0-6.0-8.0-4.0-0.0,1187,"<div><div style=""""><a style=""white-space:pre-wrap;""> while a >= 4:
   a += 2
   a /= 2</a><a style=""""></a></div></div>",backspace,,1,,,backspace,
,html-keyboard-response,196,784703,0.0-6.0-9.0-0.0-0.0,2854,"<div><div style=""""><a style=""white-space:pre-wrap;""> while a <= 9:
   a *= 2</a><a style=""""></a></div></div>",6,,1,,,6,0
,html-keyboard-response,197,791512,0.0-6.0-9.0-1.0-0.0,6295,"<div><div style=""""><a style=""white-space:pre-wrap;""> while a <= 9:
   a *= 2</a><a style=""""></a></div></div>",12,,1,,,12,1
,html-keyboard-response,198,792828,0.0-6.0-9.0-2.0-0.0,799,"<div><div style=""""><a style=""white-space:pre-wrap;""> while a <= 9:
   a *= 2</a><a style=""""></a></div></div>",backspace,,1,,,backspace,
,html-keyboard-response,199,796799,0.0-6.0-10.0-0.0-0.0,3467,"<div><div style=""""><a style=""white-space:pre-wrap;""> for i in [1, 2]:
   a += 6
   a -= 4</a><a style=""""></a></div></div>",18,,1,,,18,0
,html-keyboard-response,200,798047,0.0-6.0-10.0-1.0-0.0,731,"<div><div style=""""><a style=""white-space:pre-wrap;""> for i in [1, 2]:
   a += 6
   a -= 4</a><a style=""""></a></div></div>",14,,1,,,14,1
,html-keyboard-response,201,799205,0.0-6.0-10.0-2.0-0.0,645,"<div><div style=""""><a style=""white-space:pre-wrap;""> for i in [1, 2]:
   a += 6
   a -= 4</a><a style=""""></a></div></div>",20,,1,,,20,2
,html-keyboard-response,202,800292,0.0-6.0-10.0-3.0-0.0,582,"<div><div style=""""><a style=""white-space:pre-wrap;""> for i in [1, 2]:
   a += 6
   a -= 4</a><a style=""""></a></div></div>",16,,1,,,16,3
,html-keyboard-response,203,801392,0.0-6.0-10.0-4.0-0.0,597,"<div><div style=""""><a style=""white-space:pre-wrap;""> for i in [1, 2]:
   a += 6
   a -= 4</a><a style=""""></a></div></div>",backspace,,1,,,backspace,
,html-keyboard-response,204,804604,0.0-6.0-11.0-0.0-0.0,2704,"<div><div style=""""><a style=""white-space:pre-wrap;""> for i in [1, 2, 3, 4]:
   a -= 3</a><a style=""""></a></div></div>",13,,1,,,13,0
,html-keyboard-response,205,807507,0.0-6.0-11.0-1.0-0.0,2387,"<div><div style=""""><a style=""white-space:pre-wrap;""> for i in [1, 2, 3, 4]:
   a -= 3</a><a style=""""></a></div></div>",10,,1,,,10,1
,html-keyboard-response,206,808865,0.0-6.0-11.0-2.0-0.0,843,"<div><div style=""""><a style=""white-space:pre-wrap;""> for i in [1, 2, 3, 4]:
   a -= 3</a><a style=""""></a></div></div>",7,,1,,,7,2
,html-keyboard-response,207,810099,0.0-6.0-11.0-3.0-0.0,718,"<div><div style=""""><a style=""white-space:pre-wrap;""> for i in [1, 2, 3, 4]:
   a -= 3</a><a style=""""></a></div></div>",4,,1,,,4,3
,html-keyboard-response,208,811285,0.0-6.0-11.0-4.0-0.0,683,"<div><div style=""""><a style=""white-space:pre-wrap;""> for i in [1, 2, 3, 4]:
   a -= 3</a><a style=""""></a></div></div>",backspace,,1,,,backspace,
,html-keyboard-response,209,815177,0.0-7.0-1.0,3384,"<p style=""font-size: 25px;"">Please press space to start the next program<br>>>>>>></p>", ,,,,,,
,html-keyboard-response,210,820657,0.0-7.0-2.0,5479,"<div><div style="" font-size:25px; color:green;""><a style=""white-space:pre-wrap;""> a = 16</a><a style=""""></a></div></div>",,null,,82,a = 16,,
,html-keyboard-response,211,824749,0.0-7.0-4.0-0.0-0.0,3575,"<div><div style=""""><a style=""white-space:pre-wrap;""> while a >= 6:
   a /= 2</a><a style=""""></a></div></div>",8,,1,,,8,0
,html-keyboard-response,212,826235,0.0-7.0-4.0-1.0-0.0,976,"<div><div style=""""><a style=""white-space:pre-wrap;""> while a >= 6:
   a /= 2</a><a style=""""></a></div></div>",4,,1,,,4,1
,html-keyboard-response,213,827460,0.0-7.0-4.0-2.0-0.0,719,"<div><div style=""""><a style=""white-space:pre-wrap;""> while a >= 6:
   a /= 2</a><a style=""""></a></div></div>",backspace,,1,,,backspace,
,html-keyboard-response,214,831358,0.0-7.0-5.0-0.0-0.0,3394,"<div><div style=""""><a style=""white-space:pre-wrap;""> while a <= 11:
   a = round_up(a*1.5)</a><a style=""""></a></div></div>",6,,1,,,6,0
,html-keyboard-response,215,832592,0.0-7.0-5.0-1.0-0.0,728,"<div><div style=""""><a style=""white-space:pre-wrap;""> while a <= 11:
   a = round_up(a*1.5)</a><a style=""""></a></div></div>",9,,1,,,9,1
,html-keyboard-response,216,836364,0.0-7.0-5.0-2.0-0.0,3266,"<div><div style=""""><a style=""white-space:pre-wrap;""> while a <= 11:
   a = round_up(a*1.5)</a><a style=""""></a></div></div>",14,,1,,,14,2
,html-keyboard-response,217,838223,0.0-7.0-5.0-3.0-0.0,1350,"<div><div style=""""><a style=""white-space:pre-wrap;""> while a <= 11:
   a = round_up(a*1.5)</a><a style=""""></a></div></div>",backspace,,1,,,backspace,
,html-keyboard-response,218,846025,0.0-7.0-6.0-0.0-0.0,7285,"<div><div style=""""><a style=""white-space:pre-wrap;""> for i in [1, 2]:
   a += 5
   a -= 6</a><a style=""""></a></div></div>",19,,1,,,19,0
,html-keyboard-response,219,848025,0.0-7.0-6.0-1.0-0.0,1487,"<div><div style=""""><a style=""white-space:pre-wrap;""> for i in [1, 2]:
   a += 5
   a -= 6</a><a style=""""></a></div></div>",13,,1,,,13,1
,html-keyboard-response,220,849786,0.0-7.0-6.0-2.0-0.0,1255,"<div><div style=""""><a style=""white-space:pre-wrap;""> for i in [1, 2]:
   a += 5
   a -= 6</a><a style=""""></a></div></div>",18,,1,,,18,2
,html-keyboard-response,221,850855,0.0-7.0-6.0-3.0-0.0,554,"<div><div style=""""><a style=""white-space:pre-wrap;""> for i in [1, 2]:
   a += 5
   a -= 6</a><a style=""""></a></div></div>",12,,1,,,12,3
,html-keyboard-response,222,851985,0.0-7.0-6.0-4.0-0.0,623,"<div><div style=""""><a style=""white-space:pre-wrap;""> for i in [1, 2]:
   a += 5
   a -= 6</a><a style=""""></a></div></div>",backspace,,1,,,backspace,
,html-keyboard-response,223,858735,0.0-7.0-7.0-0.0-0.0,6247,"<div><div style=""""><a style=""white-space:pre-wrap;""> for i in [1, 2, 3]:
   a = average(a,4)</a><a style=""""></a></div></div>",8,,1,,,8,0
,html-keyboard-response,224,862062,0.0-7.0-7.0-1.0-0.0,2810,"<div><div style=""""><a style=""white-space:pre-wrap;""> for i in [1, 2, 3]:
   a = average(a,4)</a><a style=""""></a></div></div>",6,,1,,,6,1
,html-keyboard-response,225,866252,0.0-7.0-7.0-2.0-0.0,3676,"<div><div style=""""><a style=""white-space:pre-wrap;""> for i in [1, 2, 3]:
   a = average(a,4)</a><a style=""""></a></div></div>",5,,1,,,5,2
,html-keyboard-response,226,868174,0.0-7.0-7.0-3.0-0.0,1404,"<div><div style=""""><a style=""white-space:pre-wrap;""> for i in [1, 2, 3]:
   a = average(a,4)</a><a style=""""></a></div></div>",backspace,,1,,,backspace,
,html-keyboard-response,227,875483,0.0-7.0-8.0-0.0-0.0,6805,"<div><div style=""""><a style=""white-space:pre-wrap;""> while a >= 3:
   a *= 3
   a -= 11</a><a style=""""></a></div></div>",15,,1,,,15,0
,html-keyboard-response,228,878982,0.0-7.0-8.0-1.0-0.0,2982,"<div><div style=""""><a style=""white-space:pre-wrap;""> while a >= 3:
   a *= 3
   a -= 11</a><a style=""""></a></div></div>",4,,1,,,4,1
,html-keyboard-response,229,883280,0.0-7.0-8.0-2.0-0.0,3795,"<div><div style=""""><a style=""white-space:pre-wrap;""> while a >= 3:
   a *= 3
   a -= 11</a><a style=""""></a></div></div>",12,,1,,,12,2
,html-keyboard-response,230,886288,0.0-7.0-8.0-3.0-0.0,2502,"<div><div style=""""><a style=""white-space:pre-wrap;""> while a >= 3:
   a *= 3
   a -= 11</a><a style=""""></a></div></div>",1,,1,,,1,3
,html-keyboard-response,231,887217,0.0-7.0-8.0-4.0-0.0,421,"<div><div style=""""><a style=""white-space:pre-wrap;""> while a >= 3:
   a *= 3
   a -= 11</a><a style=""""></a></div></div>",backspace,,1,,,backspace,
,html-keyboard-response,232,891162,0.0-7.0-9.0-0.0-0.0,3433,"<div><div style=""""><a style=""white-space:pre-wrap;""> for i in [1, 2]:
   a *= 6
   a /= 2</a><a style=""""></a></div></div>",6,,1,,,6,0
,html-keyboard-response,233,892746,0.0-7.0-9.0-1.0-0.0,1074,"<div><div style=""""><a style=""white-space:pre-wrap;""> for i in [1, 2]:
   a *= 6
   a /= 2</a><a style=""""></a></div></div>",3,,1,,,3,1
,html-keyboard-response,234,896552,0.0-7.0-9.0-2.0-0.0,3291,"<div><div style=""""><a style=""white-space:pre-wrap;""> for i in [1, 2]:
   a *= 6
   a /= 2</a><a style=""""></a></div></div>",18,,1,,,18,2
,html-keyboard-response,235,900052,0.0-7.0-9.0-3.0-0.0,2987,"<div><div style=""""><a style=""white-space:pre-wrap;""> for i in [1, 2]:
   a *= 6
   a /= 2</a><a style=""""></a></div></div>",9,,1,,,9,3
,html-keyboard-response,236,900946,0.0-7.0-9.0-4.0-0.0,382,"<div><div style=""""><a style=""white-space:pre-wrap;""> for i in [1, 2]:
   a *= 6
   a /= 2</a><a style=""""></a></div></div>",backspace,,1,,,backspace,
,html-keyboard-response,237,905211,0.0-7.0-10.0-0.0-0.0,3757,"<div><div style=""""><a style=""white-space:pre-wrap;""> for i in [1, 2]:
   a -= 2</a><a style=""""></a></div></div>",7,,1,,,7,0
,html-keyboard-response,238,907327,0.0-7.0-10.0-1.0-0.0,1610,"<div><div style=""""><a style=""white-space:pre-wrap;""> for i in [1, 2]:
   a -= 2</a><a style=""""></a></div></div>",5,,1,,,5,1
,html-keyboard-response,239,908406,0.0-7.0-10.0-2.0-0.0,571,"<div><div style=""""><a style=""white-space:pre-wrap;""> for i in [1, 2]:
   a -= 2</a><a style=""""></a></div></div>",backspace,,1,,,backspace,
,html-keyboard-response,240,914108,0.0-7.0-11.0-0.0-0.0,5192,"<div><div style=""""><a style=""white-space:pre-wrap;""> while a <= 7:
   a += 9
   a /= 2</a><a style=""""></a></div></div>",14,,1,,,14,0
,html-keyboard-response,241,916412,0.0-7.0-11.0-1.0-0.0,1791,"<div><div style=""""><a style=""white-space:pre-wrap;""> while a <= 7:
   a += 9
   a /= 2</a><a style=""""></a></div></div>",7,,1,,,7,1
,html-keyboard-response,242,920224,0.0-7.0-11.0-2.0-0.0,3307,"<div><div style=""""><a style=""white-space:pre-wrap;""> while a <= 7:
   a += 9
   a /= 2</a><a style=""""></a></div></div>",16,,1,,,16,2
,html-keyboard-response,243,921201,0.0-7.0-11.0-3.0-0.0,468,"<div><div style=""""><a style=""white-space:pre-wrap;""> while a <= 7:
   a += 9
   a /= 2</a><a style=""""></a></div></div>",8,,1,,,8,3
,html-keyboard-response,244,923387,0.0-7.0-11.0-4.0-0.0,1671,"<div><div style=""""><a style=""white-space:pre-wrap;""> while a <= 7:
   a += 9
   a /= 2</a><a style=""""></a></div></div>",backspace,,1,,,backspace,
,html-keyboard-response,245,930573,0.0-8.0-1.0,6675,"<p style=""font-size: 25px;"">Please press space to start the next program<br>>>>>>></p>", ,,,,,,
,html-keyboard-response,246,933445,0.0-8.0-2.0,2870,"<div><div style="" font-size:25px; color:green;""><a style=""white-space:pre-wrap;""> a = 9</a><a style=""""></a></div></div>",,null,,100,a = 9,,
,html-keyboard-response,247,936774,0.0-8.0-4.0-0.0-0.0,2820,"<div><div style=""""><a style=""white-space:pre-wrap;""> for i in [1, 2]:
   a /= 3</a><a style=""""></a></div></div>",3,,1,,,3,0
,html-keyboard-response,248,937659,0.0-8.0-4.0-1.0-0.0,380,"<div><div style=""""><a style=""white-space:pre-wrap;""> for i in [1, 2]:
   a /= 3</a><a style=""""></a></div></div>",1,,1,,,1,1
,html-keyboard-response,249,938547,0.0-8.0-4.0-2.0-0.0,377,"<div><div style=""""><a style=""white-space:pre-wrap;""> for i in [1, 2]:
   a /= 3</a><a style=""""></a></div></div>",backspace,,1,,,backspace,
,html-keyboard-response,250,942086,0.0-8.0-5.0-0.0-0.0,3023,"<div><div style=""""><a style=""white-space:pre-wrap;""> for i in [1, 2, 3]:
   a += 6</a><a style=""""></a></div></div>",7,,1,,,7,0
,html-keyboard-response,251,944207,0.0-8.0-5.0-1.0-0.0,1604,"<div><div style=""""><a style=""white-space:pre-wrap;""> for i in [1, 2, 3]:
   a += 6</a><a style=""""></a></div></div>",13,,1,,,13,1
,html-keyboard-response,252,947114,0.0-8.0-5.0-2.0-0.0,2391,"<div><div style=""""><a style=""white-space:pre-wrap;""> for i in [1, 2, 3]:
   a += 6</a><a style=""""></a></div></div>",19,,1,,,19,2
,html-keyboard-response,253,948338,0.0-8.0-5.0-3.0-0.0,712,"<div><div style=""""><a style=""white-space:pre-wrap;""> for i in [1, 2, 3]:
   a += 6</a><a style=""""></a></div></div>",backspace,,1,,,backspace,
,html-keyboard-response,254,951626,0.0-8.0-6.0-0.0-0.0,2780,"<div><div style=""""><a style=""white-space:pre-wrap;""> while a >= 10:
   a += 1
   a -= 8</a><a style=""""></a></div></div>",20,,1,,,20,0
,html-keyboard-response,255,953517,0.0-8.0-6.0-1.0-0.0,1382,"<div><div style=""""><a style=""white-space:pre-wrap;""> while a >= 10:
   a += 1
   a -= 8</a><a style=""""></a></div></div>",12,,1,,,12,1
,html-keyboard-response,256,956526,0.0-8.0-6.0-2.0-0.0,2498,"<div><div style=""""><a style=""white-space:pre-wrap;""> while a >= 10:
   a += 1
   a -= 8</a><a style=""""></a></div></div>",13,,1,,,13,2
,html-keyboard-response,257,960602,0.0-8.0-6.0-3.0-0.0,3567,"<div><div style=""""><a style=""white-space:pre-wrap;""> while a >= 10:
   a += 1
   a -= 8</a><a style=""""></a></div></div>",5,,1,,,5,3
,html-keyboard-response,258,961914,0.0-8.0-6.0-4.0-0.0,797,"<div><div style=""""><a style=""white-space:pre-wrap;""> while a >= 10:
   a += 1
   a -= 8</a><a style=""""></a></div></div>",backspace,,1,,,backspace,
,html-keyboard-response,259,966840,0.0-8.0-7.0-0.0-0.0,4418,"<div><div style=""""><a style=""white-space:pre-wrap;""> while a <= 6:
   a *= 3
   a -= 9</a><a style=""""></a></div></div>",15,,1,,,15,0
,html-keyboard-response,260,969011,0.0-8.0-7.0-1.0-0.0,1659,"<div><div style=""""><a style=""white-space:pre-wrap;""> while a <= 6:
   a *= 3
   a -= 9</a><a style=""""></a></div></div>",6,,1,,,6,1
,html-keyboard-response,261,970587,0.0-8.0-7.0-2.0-0.0,1062,"<div><div style=""""><a style=""white-space:pre-wrap;""> while a <= 6:
   a *= 3
   a -= 9</a><a style=""""></a></div></div>",18,,1,,,18,2
,html-keyboard-response,262,972098,0.0-8.0-7.0-3.0-0.0,998,"<div><div style=""""><a style=""white-space:pre-wrap;""> while a <= 6:
   a *= 3
   a -= 9</a><a style=""""></a></div></div>",9,,1,,,9,3
,html-keyboard-response,263,973279,0.0-8.0-7.0-4.0-0.0,672,"<div><div style=""""><a style=""white-space:pre-wrap;""> while a <= 6:
   a *= 3
   a -= 9</a><a style=""""></a></div></div>",backspace,,1,,,backspace,
,html-keyboard-response,264,976310,0.0-8.0-8.0-0.0-0.0,2517,"<div><div style=""""><a style=""white-space:pre-wrap;""> for i in [1, 2, 3]:
   a = average(a, 1)</a><a style=""""></a></div></div>",5,,1,,,5,0
,html-keyboard-response,265,979826,0.0-8.0-8.0-1.0-0.0,3009,"<div><div style=""""><a style=""white-space:pre-wrap;""> for i in [1, 2, 3]:
   a = average(a, 1)</a><a style=""""></a></div></div>",3,,1,,,3,1
,html-keyboard-response,266,982042,0.0-8.0-8.0-2.0-0.0,1706,"<div><div style=""""><a style=""white-space:pre-wrap;""> for i in [1, 2, 3]:
   a = average(a, 1)</a><a style=""""></a></div></div>",2,,1,,,2,2
,html-keyboard-response,267,983156,0.0-8.0-8.0-3.0-0.0,611,"<div><div style=""""><a style=""white-space:pre-wrap;""> for i in [1, 2, 3]:
   a = average(a, 1)</a><a style=""""></a></div></div>",backspace,,1,,,backspace,
,html-keyboard-response,268,987019,0.0-8.0-9.0-0.0-0.0,3346,"<div><div style=""""><a style=""white-space:pre-wrap;""> while a <= 9:
   a -= 1
   a *= 5</a><a style=""""></a></div></div>",1,,1,,,1,0
,html-keyboard-response,269,989675,0.0-8.0-9.0-1.0-0.0,2146,"<div><div style=""""><a style=""white-space:pre-wrap;""> while a <= 9:
   a -= 1
   a *= 5</a><a style=""""></a></div></div>",5,,1,,,5,1
,html-keyboard-response,270,992484,0.0-8.0-9.0-2.0-0.0,2299,"<div><div style=""""><a style=""white-space:pre-wrap;""> while a <= 9:
   a -= 1
   a *= 5</a><a style=""""></a></div></div>",4,,1,,,4,2
,html-keyboard-response,271,993827,0.0-8.0-9.0-3.0-0.0,826,"<div><div style=""""><a style=""white-space:pre-wrap;""> while a <= 9:
   a -= 1
   a *= 5</a><a style=""""></a></div></div>",20,,1,,,20,3
,html-keyboard-response,272,995064,0.0-8.0-9.0-4.0-0.0,734,"<div><div style=""""><a style=""white-space:pre-wrap;""> while a <= 9:
   a -= 1
   a *= 5</a><a style=""""></a></div></div>",backspace,,1,,,backspace,
,html-keyboard-response,273,1002074,0.0-8.0-10.0-0.0-0.0,6497,"<div><div style=""""><a style=""white-space:pre-wrap;""> while a >= 12:
   a -= 3</a><a style=""""></a></div></div>",17,,1,,,17,0
,html-keyboard-response,274,1004878,0.0-8.0-10.0-1.0-0.0,2293,"<div><div style=""""><a style=""white-space:pre-wrap;""> while a >= 12:
   a -= 3</a><a style=""""></a></div></div>",14,,1,,,14,1
,html-keyboard-response,275,1007321,0.0-8.0-10.0-2.0-0.0,1938,"<div><div style=""""><a style=""white-space:pre-wrap;""> while a >= 12:
   a -= 3</a><a style=""""></a></div></div>",12,,0,,,11,2
,html-keyboard-response,277,1012213,0.0-8.0-10.0-3.0-0.0,875,"<div><div style=""""><a style=""white-space:pre-wrap;""> while a >= 12:
   a -= 3</a><a style=""""></a></div></div>",backspace,,1,,,backspace,
,html-keyboard-response,278,1018498,0.0-8.0-11.0-0.0-0.0,5767,"<div><div style=""""><a style=""white-space:pre-wrap;""> for i in [1, 2]:
   a -= 5</a><a style=""""></a></div></div>",6,,1,,,6,0
,html-keyboard-response,279,1020193,0.0-8.0-11.0-1.0-0.0,1188,"<div><div style=""""><a style=""white-space:pre-wrap;""> for i in [1, 2]:
   a -= 5</a><a style=""""></a></div></div>",1,,1,,,1,1
,html-keyboard-response,280,1021878,0.0-8.0-11.0-2.0-0.0,1172,"<div><div style=""""><a style=""white-space:pre-wrap;""> for i in [1, 2]:
   a -= 5</a><a style=""""></a></div></div>",backspace,,1,,,backspace,
,html-keyboard-response,281,1058681,0.0-9.0-0.0-0.0,36294,"<p style=""position:absolute; top:30%; font-size:25px; color:green;"" >Take a short break now</p>", ,,,,,,
,html-keyboard-response,282,1062846,0.0-9.0-1.0,4163,"<p style=""font-size: 25px;"">Please press space to start the next program<br>>>>>>></p>", ,,,,,,
,html-keyboard-response,283,1065602,0.0-9.0-2.0,2753,"<div><div style="" font-size:25px; color:green;""><a style=""white-space:pre-wrap;""> a = 11</a><a style=""""></a></div></div>",,null,,64,a = 11,,
,html-keyboard-response,284,1068815,0.0-9.0-4.0-0.0-0.0,2710,"<div><div style=""""><a style=""white-space:pre-wrap;""> for i in [1, 2]:
   a += 4
   a /= 3</a><a style=""""></a></div></div>",15,,1,,,15,0
,html-keyboard-response,285,1070189,0.0-9.0-4.0-1.0-0.0,862,"<div><div style=""""><a style=""white-space:pre-wrap;""> for i in [1, 2]:
   a += 4
   a /= 3</a><a style=""""></a></div></div>",5,,1,,,5,1
,html-keyboard-response,286,1072830,0.0-9.0-4.0-2.0-0.0,2136,"<div><div style=""""><a style=""white-space:pre-wrap;""> for i in [1, 2]:
   a += 4
   a /= 3</a><a style=""""></a></div></div>",9,,1,,,9,2
,html-keyboard-response,287,1073682,0.0-9.0-4.0-3.0-0.0,339,"<div><div style=""""><a style=""white-space:pre-wrap;""> for i in [1, 2]:
   a += 4
   a /= 3</a><a style=""""></a></div></div>",3,,1,,,3,3
,html-keyboard-response,288,1074636,0.0-9.0-4.0-4.0-0.0,442,"<div><div style=""""><a style=""white-space:pre-wrap;""> for i in [1, 2]:
   a += 4
   a /= 3</a><a style=""""></a></div></div>",backspace,,1,,,backspace,
,html-keyboard-response,289,1082284,0.0-9.0-5.0-0.0-0.0,7137,"<div><div style=""""><a style=""white-space:pre-wrap;""> for i in [1, 2]:
   a = round_down(a*2.5)</a><a style=""""></a></div></div>",7,,1,,,7,0
,html-keyboard-response,290,1110427,0.0-9.0-5.0-1.0-0.0,27634,"<div><div style=""""><a style=""white-space:pre-wrap;""> for i in [1, 2]:
   a = round_down(a*2.5)</a><a style=""""></a></div></div>",17,,1,,,17,1
,html-keyboard-response,291,1113091,0.0-9.0-5.0-2.0-0.0,2146,"<div><div style=""""><a style=""white-space:pre-wrap;""> for i in [1, 2]:
   a = round_down(a*2.5)</a><a style=""""></a></div></div>",backspace,,1,,,backspace,
,html-keyboard-response,292,1123342,0.0-9.0-6.0-0.0-0.0,9732,"<div><div style=""""><a style=""white-space:pre-wrap;""> while a >= 3:
   a = average(a,1)</a><a style=""""></a></div></div>",9,,1,,,9,0
,html-keyboard-response,293,1126260,0.0-9.0-6.0-1.0-0.0,2413,"<div><div style=""""><a style=""white-space:pre-wrap;""> while a >= 3:
   a = average(a,1)</a><a style=""""></a></div></div>",5,,1,,,5,1
,html-keyboard-response,294,1132149,0.0-9.0-6.0-2.0-0.0,5383,"<div><div style=""""><a style=""white-space:pre-wrap;""> while a >= 3:
   a = average(a,1)</a><a style=""""></a></div></div>",3,,1,,,3,2
,html-keyboard-response,295,1135092,0.0-9.0-6.0-3.0-0.0,2427,"<div><div style=""""><a style=""white-space:pre-wrap;""> while a >= 3:
   a = average(a,1)</a><a style=""""></a></div></div>",2,,1,,,2,3
,html-keyboard-response,296,1136119,0.0-9.0-6.0-4.0-0.0,522,"<div><div style=""""><a style=""white-space:pre-wrap;""> while a >= 3:
   a = average(a,1)</a><a style=""""></a></div></div>",backspace,,1,,,backspace,
,html-keyboard-response,297,1140898,0.0-9.0-7.0-0.0-0.0,4267,"<div><div style=""""><a style=""white-space:pre-wrap;""> for i in [1, 2]:
   a *= 3
   a -= 1</a><a style=""""></a></div></div>",6,,1,,,6,0
,html-keyboard-response,298,1142625,0.0-9.0-7.0-1.0-0.0,1217,"<div><div style=""""><a style=""white-space:pre-wrap;""> for i in [1, 2]:
   a *= 3
   a -= 1</a><a style=""""></a></div></div>",5,,1,,,5,1
,html-keyboard-response,299,1145620,0.0-9.0-7.0-2.0-0.0,2479,"<div><div style=""""><a style=""white-space:pre-wrap;""> for i in [1, 2]:
   a *= 3
   a -= 1</a><a style=""""></a></div></div>",15,,1,,,15,2
,html-keyboard-response,300,1146839,0.0-9.0-7.0-3.0-0.0,707,"<div><div style=""""><a style=""white-space:pre-wrap;""> for i in [1, 2]:
   a *= 3
   a -= 1</a><a style=""""></a></div></div>",14,,1,,,14,3
,html-keyboard-response,301,1147740,0.0-9.0-7.0-4.0-0.0,395,"<div><div style=""""><a style=""white-space:pre-wrap;""> for i in [1, 2]:
   a *= 3
   a -= 1</a><a style=""""></a></div></div>",backspace,,1,,,backspace,
,html-keyboard-response,302,1151515,0.0-9.0-8.0-0.0-0.0,3259,"<div><div style=""""><a style=""white-space:pre-wrap;""> for i in [1, 2, 3]:
   a -= 5
   a += 1</a><a style=""""></a></div></div>",9,,1,,,9,0
,html-keyboard-response,303,1152407,0.0-9.0-8.0-1.0-0.0,383,"<div><div style=""""><a style=""white-space:pre-wrap;""> for i in [1, 2, 3]:
   a -= 5
   a += 1</a><a style=""""></a></div></div>",10,,1,,,10,1
,html-keyboard-response,304,1154592,0.0-9.0-8.0-2.0-0.0,1676,"<div><div style=""""><a style=""white-space:pre-wrap;""> for i in [1, 2, 3]:
   a -= 5
   a += 1</a><a style=""""></a></div></div>",5,,1,,,5,2
,html-keyboard-response,305,1155697,0.0-9.0-8.0-3.0-0.0,590,"<div><div style=""""><a style=""white-space:pre-wrap;""> for i in [1, 2, 3]:
   a -= 5
   a += 1</a><a style=""""></a></div></div>",6,,1,,,6,3
,html-keyboard-response,306,1158654,0.0-9.0-8.0-4.0-0.0,2442,"<div><div style=""""><a style=""white-space:pre-wrap;""> for i in [1, 2, 3]:
   a -= 5
   a += 1</a><a style=""""></a></div></div>",1,,1,,,1,4
,html-keyboard-response,307,1159464,0.0-9.0-8.0-5.0-0.0,308,"<div><div style=""""><a style=""white-space:pre-wrap;""> for i in [1, 2, 3]:
   a -= 5
   a += 1</a><a style=""""></a></div></div>",2,,1,,,2,5
,html-keyboard-response,308,1160588,0.0-9.0-8.0-6.0-0.0,606,"<div><div style=""""><a style=""white-space:pre-wrap;""> for i in [1, 2, 3]:
   a -= 5
   a += 1</a><a style=""""></a></div></div>",backspace,,1,,,backspace,
,html-keyboard-response,309,1164690,0.0-9.0-9.0-0.0-0.0,3599,"<div><div style=""""><a style=""white-space:pre-wrap;""> while a <= 15:
   a *= 3</a><a style=""""></a></div></div>",6,,1,,,6,0
,html-keyboard-response,310,1170580,0.0-9.0-9.0-1.0-0.0,5378,"<div><div style=""""><a style=""white-space:pre-wrap;""> while a <= 15:
   a *= 3</a><a style=""""></a></div></div>",12,,0,,,18,1
,html-keyboard-response,312,1177575,0.0-9.0-9.0-2.0-0.0,2963,"<div><div style=""""><a style=""white-space:pre-wrap;""> while a <= 15:
   a *= 3</a><a style=""""></a></div></div>",backspace,,1,,,backspace,
,html-keyboard-response,313,1183337,0.0-9.0-10.0-0.0-0.0,5254,"<div><div style=""""><a style=""white-space:pre-wrap;""> for i in [1, 2]:
   a /= 3
   a *= 2</a><a style=""""></a></div></div>",6,,1,,,6,0
,html-keyboard-response,314,1187686,0.0-9.0-10.0-1.0-0.0,3835,"<div><div style=""""><a style=""white-space:pre-wrap;""> for i in [1, 2]:
   a /= 3
   a *= 2</a><a style=""""></a></div></div>",12,,1,,,12,1
,html-keyboard-response,315,1188979,0.0-9.0-10.0-2.0-0.0,787,"<div><div style=""""><a style=""white-space:pre-wrap;""> for i in [1, 2]:
   a /= 3
   a *= 2</a><a style=""""></a></div></div>",4,,1,,,4,2
,html-keyboard-response,316,1190011,0.0-9.0-10.0-3.0-0.0,515,"<div><div style=""""><a style=""white-space:pre-wrap;""> for i in [1, 2]:
   a /= 3
   a *= 2</a><a style=""""></a></div></div>",8,,1,,,8,3
,html-keyboard-response,317,1190891,0.0-9.0-10.0-4.0-0.0,367,"<div><div style=""""><a style=""white-space:pre-wrap;""> for i in [1, 2]:
   a /= 3
   a *= 2</a><a style=""""></a></div></div>",backspace,,1,,,backspace,
,html-keyboard-response,318,1193643,0.0-9.0-11.0-0.0-0.0,2243,"<div><div style=""""><a style=""white-space:pre-wrap;""> for i in [1, 2, 3]:
   a += 4</a><a style=""""></a></div></div>",12,,1,,,12,0
,html-keyboard-response,319,1196009,0.0-9.0-11.0-1.0-0.0,1863,"<div><div style=""""><a style=""white-space:pre-wrap;""> for i in [1, 2, 3]:
   a += 4</a><a style=""""></a></div></div>",16,,1,,,16,1
,html-keyboard-response,320,1196864,0.0-9.0-11.0-2.0-0.0,346,"<div><div style=""""><a style=""white-space:pre-wrap;""> for i in [1, 2, 3]:
   a += 4</a><a style=""""></a></div></div>",20,,1,,,20,2
,html-keyboard-response,321,1197921,0.0-9.0-11.0-3.0-0.0,541,"<div><div style=""""><a style=""white-space:pre-wrap;""> for i in [1, 2, 3]:
   a += 4</a><a style=""""></a></div></div>",backspace,,1,,,backspace,
,html-keyboard-response,322,1201613,0.0-10.0-1.0,3174,"<p style=""font-size: 25px;"">Please press space to start the next program<br>>>>>>></p>", ,,,,,,
,html-keyboard-response,323,1205678,0.0-10.0-2.0,4063,"<div><div style="" font-size:25px; color:green;""><a style=""white-space:pre-wrap;""> a = 16</a><a style=""""></a></div></div>",,null,,73,a = 16,,
,html-keyboard-response,324,1208448,0.0-10.0-4.0-0.0-0.0,2258,"<div><div style=""""><a style=""white-space:pre-wrap;""> for i in [1, 2]:
   a /= 2</a><a style=""""></a></div></div>",8,,1,,,8,0
,html-keyboard-response,325,1212209,0.0-10.0-4.0-1.0-0.0,3244,"<div><div style=""""><a style=""white-space:pre-wrap;""> for i in [1, 2]:
   a /= 2</a><a style=""""></a></div></div>",4,,1,,,4,1
,html-keyboard-response,326,1213155,0.0-10.0-4.0-2.0-0.0,431,"<div><div style=""""><a style=""white-space:pre-wrap;""> for i in [1, 2]:
   a /= 2</a><a style=""""></a></div></div>",backspace,,1,,,backspace,
,html-keyboard-response,327,1218090,0.0-10.0-5.0-0.0-0.0,4421,"<div><div style=""""><a style=""white-space:pre-wrap;""> while a <= 11:
   a = round_up(a*1.5)</a><a style=""""></a></div></div>",6,,1,,,6,0
,html-keyboard-response,328,1220112,0.0-10.0-5.0-1.0-0.0,1518,"<div><div style=""""><a style=""white-space:pre-wrap;""> while a <= 11:
   a = round_up(a*1.5)</a><a style=""""></a></div></div>",9,,1,,,9,1
,html-keyboard-response,329,1222750,0.0-10.0-5.0-2.0-0.0,2126,"<div><div style=""""><a style=""white-space:pre-wrap;""> while a <= 11:
   a = round_up(a*1.5)</a><a style=""""></a></div></div>",14,,1,,,14,2
,html-keyboard-response,330,1224267,0.0-10.0-5.0-3.0-0.0,1012,"<div><div style=""""><a style=""white-space:pre-wrap;""> while a <= 11:
   a = round_up(a*1.5)</a><a style=""""></a></div></div>",backspace,,1,,,backspace,
,html-keyboard-response,331,1229235,0.0-10.0-6.0-0.0-0.0,4458,"<div><div style=""""><a style=""white-space:pre-wrap;""> while a >= 13:
   a += 5
   a -= 6</a><a style=""""></a></div></div>",19,,1,,,19,0
,html-keyboard-response,332,1233037,0.0-10.0-6.0-1.0-0.0,3297,"<div><div style=""""><a style=""white-space:pre-wrap;""> while a >= 13:
   a += 5
   a -= 6</a><a style=""""></a></div></div>",13,,1,,,13,1
,html-keyboard-response,333,1235368,0.0-10.0-6.0-2.0-0.0,1814,"<div><div style=""""><a style=""white-space:pre-wrap;""> while a >= 13:
   a += 5
   a -= 6</a><a style=""""></a></div></div>",18,,1,,,18,2
,html-keyboard-response,334,1239965,0.0-10.0-6.0-3.0-0.0,4091,"<div><div style=""""><a style=""white-space:pre-wrap;""> while a >= 13:
   a += 5
   a -= 6</a><a style=""""></a></div></div>",12,,1,,,12,3
,html-keyboard-response,335,1241002,0.0-10.0-6.0-4.0-0.0,529,"<div><div style=""""><a style=""white-space:pre-wrap;""> while a >= 13:
   a += 5
   a -= 6</a><a style=""""></a></div></div>",backspace,,1,,,backspace,
,html-keyboard-response,336,1245814,0.0-10.0-7.0-0.0-0.0,4303,"<div><div style=""""><a style=""white-space:pre-wrap;""> for i in [1, 2, 3]:
   a = average(a,4)</a><a style=""""></a></div></div>",8,,1,,,8,0
,html-keyboard-response,337,1250517,0.0-10.0-7.0-1.0-0.0,4192,"<div><div style=""""><a style=""white-space:pre-wrap;""> for i in [1, 2, 3]:
   a = average(a,4)</a><a style=""""></a></div></div>",6,,1,,,6,1
,html-keyboard-response,338,1253045,0.0-10.0-7.0-2.0-0.0,2013,"<div><div style=""""><a style=""white-space:pre-wrap;""> for i in [1, 2, 3]:
   a = average(a,4)</a><a style=""""></a></div></div>",5,,1,,,5,2
,html-keyboard-response,339,1254166,0.0-10.0-7.0-3.0-0.0,605,"<div><div style=""""><a style=""white-space:pre-wrap;""> for i in [1, 2, 3]:
   a = average(a,4)</a><a style=""""></a></div></div>",backspace,,1,,,backspace,
,html-keyboard-response,340,1257204,0.0-10.0-8.0-0.0-0.0,2526,"<div><div style=""""><a style=""white-space:pre-wrap;""> for i in [1, 2]:
   a *= 3
   a -= 11</a><a style=""""></a></div></div>",15,,1,,,15,0
,html-keyboard-response,341,1260689,0.0-10.0-8.0-1.0-0.0,2970,"<div><div style=""""><a style=""white-space:pre-wrap;""> for i in [1, 2]:
   a *= 3
   a -= 11</a><a style=""""></a></div></div>",4,,1,,,4,1
,html-keyboard-response,342,1263745,0.0-10.0-8.0-2.0-0.0,2542,"<div><div style=""""><a style=""white-space:pre-wrap;""> for i in [1, 2]:
   a *= 3
   a -= 11</a><a style=""""></a></div></div>",12,,1,,,12,2
,html-keyboard-response,343,1264842,0.0-10.0-8.0-3.0-0.0,580,"<div><div style=""""><a style=""white-space:pre-wrap;""> for i in [1, 2]:
   a *= 3
   a -= 11</a><a style=""""></a></div></div>",1,,1,,,1,3
,html-keyboard-response,344,1265834,0.0-10.0-8.0-4.0-0.0,478,"<div><div style=""""><a style=""white-space:pre-wrap;""> for i in [1, 2]:
   a *= 3
   a -= 11</a><a style=""""></a></div></div>",backspace,,1,,,backspace,
,html-keyboard-response,345,1268606,0.0-10.0-9.0-0.0-0.0,2263,"<div><div style=""""><a style=""white-space:pre-wrap;""> for i in [1, 2]:
   a *= 6
   a /= 2</a><a style=""""></a></div></div>",6,,1,,,6,0
,html-keyboard-response,346,1270426,0.0-10.0-9.0-1.0-0.0,1304,"<div><div style=""""><a style=""white-space:pre-wrap;""> for i in [1, 2]:
   a *= 6
   a /= 2</a><a style=""""></a></div></div>",3,,1,,,3,1
,html-keyboard-response,347,1273410,0.0-10.0-9.0-2.0-0.0,2473,"<div><div style=""""><a style=""white-space:pre-wrap;""> for i in [1, 2]:
   a *= 6
   a /= 2</a><a style=""""></a></div></div>",18,,1,,,18,2
,html-keyboard-response,348,1274561,0.0-10.0-9.0-3.0-0.0,646,"<div><div style=""""><a style=""white-space:pre-wrap;""> for i in [1, 2]:
   a *= 6
   a /= 2</a><a style=""""></a></div></div>",9,,1,,,9,3
,html-keyboard-response,349,1275439,0.0-10.0-9.0-4.0-0.0,370,"<div><div style=""""><a style=""white-space:pre-wrap;""> for i in [1, 2]:
   a *= 6
   a /= 2</a><a style=""""></a></div></div>",backspace,,1,,,backspace,
,html-keyboard-response,350,1278755,0.0-10.0-10.0-0.0-0.0,2802,"<div><div style=""""><a style=""white-space:pre-wrap;""> while a >= 7:
   a -= 2</a><a style=""""></a></div></div>",7,,1,,,7,0
,html-keyboard-response,351,1280876,0.0-10.0-10.0-1.0-0.0,1604,"<div><div style=""""><a style=""white-space:pre-wrap;""> while a >= 7:
   a -= 2</a><a style=""""></a></div></div>",5,,1,,,5,1
,html-keyboard-response,352,1281792,0.0-10.0-10.0-2.0-0.0,403,"<div><div style=""""><a style=""white-space:pre-wrap;""> while a >= 7:
   a -= 2</a><a style=""""></a></div></div>",backspace,,1,,,backspace,
,html-keyboard-response,353,1286864,0.0-10.0-11.0-0.0-0.0,4562,"<div><div style=""""><a style=""white-space:pre-wrap;""> while a <= 7:
   a += 9
   a /= 2</a><a style=""""></a></div></div>",14,,1,,,14,0
,html-keyboard-response,354,1288535,0.0-10.0-11.0-1.0-0.0,1162,"<div><div style=""""><a style=""white-space:pre-wrap;""> while a <= 7:
   a += 9
   a /= 2</a><a style=""""></a></div></div>",7,,1,,,7,1
,html-keyboard-response,355,1292057,0.0-10.0-11.0-2.0-0.0,3016,"<div><div style=""""><a style=""white-space:pre-wrap;""> while a <= 7:
   a += 9
   a /= 2</a><a style=""""></a></div></div>",16,,1,,,16,2
,html-keyboard-response,356,1293562,0.0-10.0-11.0-3.0-0.0,1002,"<div><div style=""""><a style=""white-space:pre-wrap;""> while a <= 7:
   a += 9
   a /= 2</a><a style=""""></a></div></div>",8,,1,,,8,3
,html-keyboard-response,357,1294519,0.0-10.0-11.0-4.0-0.0,451,"<div><div style=""""><a style=""white-space:pre-wrap;""> while a <= 7:
   a += 9
   a /= 2</a><a style=""""></a></div></div>",backspace,,1,,,backspace,
,html-keyboard-response,358,1297654,0.0-11.0-1.0,2616,"<p style=""font-size: 25px;"">Please press space to start the next program<br>>>>>>></p>", ,,,,,,
,html-keyboard-response,359,1302691,0.0-11.0-2.0,5034,"<div><div style="" font-size:25px; color:green;""><a style=""white-space:pre-wrap;""> a = 18</a><a style=""""></a></div></div>",,null,,19,a = 18,,
,html-keyboard-response,360,1305197,0.0-11.0-4.0-0.0-0.0,1994,"<div><div style=""""><a style=""white-space:pre-wrap;""> while a >= 10:
   a /= 3
   a *= 2</a><a style=""""></a></div></div>",6,,1,,,6,0
,html-keyboard-response,361,1307076,0.0-11.0-4.0-1.0-0.0,1365,"<div><div style=""""><a style=""white-space:pre-wrap;""> while a >= 10:
   a /= 3
   a *= 2</a><a style=""""></a></div></div>",12,,1,,,12,1
,html-keyboard-response,362,1308644,0.0-11.0-4.0-2.0-0.0,1059,"<div><div style=""""><a style=""white-space:pre-wrap;""> while a >= 10:
   a /= 3
   a *= 2</a><a style=""""></a></div></div>",4,,1,,,4,2
,html-keyboard-response,363,1310358,0.0-11.0-4.0-3.0-0.0,1196,"<div><div style=""""><a style=""white-space:pre-wrap;""> while a >= 10:
   a /= 3
   a *= 2</a><a style=""""></a></div></div>",8,,1,,,8,3
,html-keyboard-response,364,1311316,0.0-11.0-4.0-4.0-0.0,450,"<div><div style=""""><a style=""white-space:pre-wrap;""> while a >= 10:
   a /= 3
   a *= 2</a><a style=""""></a></div></div>",backspace,,1,,,backspace,
,html-keyboard-response,365,1315202,0.0-11.0-5.0-0.0-0.0,3368,"<div><div style=""""><a style=""white-space:pre-wrap;""> while a >= 2:
   a /= 2</a><a style=""""></a></div></div>",4,,1,,,4,0
,html-keyboard-response,366,1318112,0.0-11.0-5.0-1.0-0.0,2394,"<div><div style=""""><a style=""white-space:pre-wrap;""> while a >= 2:
   a /= 2</a><a style=""""></a></div></div>",2,,1,,,2,1
,html-keyboard-response,367,1319120,0.0-11.0-5.0-2.0-0.0,491,"<div><div style=""""><a style=""white-space:pre-wrap;""> while a >= 2:
   a /= 2</a><a style=""""></a></div></div>",1,,1,,,1,2
,html-keyboard-response,368,1320423,0.0-11.0-5.0-3.0-0.0,788,"<div><div style=""""><a style=""white-space:pre-wrap;""> while a >= 2:
   a /= 2</a><a style=""""></a></div></div>",backspace,,1,,,backspace,
,html-keyboard-response,369,1323469,0.0-11.0-6.0-0.0-0.0,2532,"<div><div style=""""><a style=""white-space:pre-wrap;""> for i in [1, 2, 3, 4]:
   a += 2</a><a style=""""></a></div></div>",3,,1,,,3,0
,html-keyboard-response,370,1325001,0.0-11.0-6.0-1.0-0.0,1026,"<div><div style=""""><a style=""white-space:pre-wrap;""> for i in [1, 2, 3, 4]:
   a += 2</a><a style=""""></a></div></div>",5,,1,,,5,1
,html-keyboard-response,371,1326653,0.0-11.0-6.0-2.0-0.0,1138,"<div><div style=""""><a style=""white-space:pre-wrap;""> for i in [1, 2, 3, 4]:
   a += 2</a><a style=""""></a></div></div>",7,,1,,,7,2
,html-keyboard-response,372,1328475,0.0-11.0-6.0-3.0-0.0,1304,"<div><div style=""""><a style=""white-space:pre-wrap;""> for i in [1, 2, 3, 4]:
   a += 2</a><a style=""""></a></div></div>",9,,1,,,9,3
,html-keyboard-response,373,1329592,0.0-11.0-6.0-4.0-0.0,613,"<div><div style=""""><a style=""white-space:pre-wrap;""> for i in [1, 2, 3, 4]:
   a += 2</a><a style=""""></a></div></div>",backspace,,1,,,backspace,
,html-keyboard-response,374,1331621,0.0-11.0-7.0-0.0-0.0,1521,"<div><div style=""""><a style=""white-space:pre-wrap;""> while a >= 6:
   a += 9
   a /= 3</a><a style=""""></a></div></div>",18,,1,,,18,0
,html-keyboard-response,375,1335233,0.0-11.0-7.0-1.0-0.0,3106,"<div><div style=""""><a style=""white-space:pre-wrap;""> while a >= 6:
   a += 9
   a /= 3</a><a style=""""></a></div></div>",6,,1,,,6,1
,html-keyboard-response,376,1343649,0.0-11.0-7.0-2.0-0.0,7906,"<div><div style=""""><a style=""white-space:pre-wrap;""> while a >= 6:
   a += 9
   a /= 3</a><a style=""""></a></div></div>",15,,1,,,15,2
,html-keyboard-response,377,1344780,0.0-11.0-7.0-3.0-0.0,620,"<div><div style=""""><a style=""white-space:pre-wrap;""> while a >= 6:
   a += 9
   a /= 3</a><a style=""""></a></div></div>",5,,1,,,5,3
,html-keyboard-response,378,1348706,0.0-11.0-7.0-4.0-0.0,3423,"<div><div style=""""><a style=""white-space:pre-wrap;""> while a >= 6:
   a += 9
   a /= 3</a><a style=""""></a></div></div>",backspace,,1,,,backspace,
,html-keyboard-response,379,1364897,0.0-11.0-8.0-0.0-0.0,15688,"<div><div style=""""><a style=""white-space:pre-wrap;""> for i in [1, 2, 3]:
   a = round_down(a*1.5)</a><a style=""""></a></div></div>",7,,1,,,7,0
,html-keyboard-response,380,1373411,0.0-11.0-8.0-1.0-0.0,8008,"<div><div style=""""><a style=""white-space:pre-wrap;""> for i in [1, 2, 3]:
   a = round_down(a*1.5)</a><a style=""""></a></div></div>",10,,1,,,10,1
,html-keyboard-response,381,1382181,0.0-11.0-8.0-2.0-0.0,8268,"<div><div style=""""><a style=""white-space:pre-wrap;""> for i in [1, 2, 3]:
   a = round_down(a*1.5)</a><a style=""""></a></div></div>",15,,1,,,15,2
,html-keyboard-response,382,1383475,0.0-11.0-8.0-3.0-0.0,782,"<div><div style=""""><a style=""white-space:pre-wrap;""> for i in [1, 2, 3]:
   a = round_down(a*1.5)</a><a style=""""></a></div></div>",backspace,,1,,,backspace,
,html-keyboard-response,383,1386511,0.0-11.0-9.0-0.0-0.0,2519,"<div><div style=""""><a style=""white-space:pre-wrap;""> for i in [1, 2]:
   a = average(a,3)</a><a style=""""></a></div></div>",9,,1,,,9,0
,html-keyboard-response,384,1391646,0.0-11.0-9.0-1.0-0.0,4629,"<div><div style=""""><a style=""white-space:pre-wrap;""> for i in [1, 2]:
   a = average(a,3)</a><a style=""""></a></div></div>",6,,1,,,6,1
,html-keyboard-response,385,1401988,0.0-11.0-9.0-2.0-0.0,9835,"<div><div style=""""><a style=""white-space:pre-wrap;""> for i in [1, 2]:
   a = average(a,3)</a><a style=""""></a></div></div>",backspace,,1,,,backspace,
,html-keyboard-response,386,1412075,0.0-11.0-10.0-0.0-0.0,9573,"<div><div style=""""><a style=""white-space:pre-wrap;""> while a <= 11:
   a *= 2
   a -= 5</a><a style=""""></a></div></div>",12,,1,,,12,0
,html-keyboard-response,387,1414205,0.0-11.0-10.0-1.0-0.0,1622,"<div><div style=""""><a style=""white-space:pre-wrap;""> while a <= 11:
   a *= 2
   a -= 5</a><a style=""""></a></div></div>",7,,1,,,7,1
,html-keyboard-response,388,1417199,0.0-11.0-10.0-2.0-0.0,2477,"<div><div style=""""><a style=""white-space:pre-wrap;""> while a <= 11:
   a *= 2
   a -= 5</a><a style=""""></a></div></div>",14,,1,,,14,2
,html-keyboard-response,389,1421317,0.0-11.0-10.0-3.0-0.0,3608,"<div><div style=""""><a style=""white-space:pre-wrap;""> while a <= 11:
   a *= 2
   a -= 5</a><a style=""""></a></div></div>",9,,1,,,9,3
,html-keyboard-response,390,1426815,0.0-11.0-10.0-4.0-0.0,4983,"<div><div style=""""><a style=""white-space:pre-wrap;""> while a <= 11:
   a *= 2
   a -= 5</a><a style=""""></a></div></div>",18,,1,,,18,4
,html-keyboard-response,391,1434346,0.0-11.0-10.0-5.0-0.0,7014,"<div><div style=""""><a style=""white-space:pre-wrap;""> while a <= 11:
   a *= 2
   a -= 5</a><a style=""""></a></div></div>",13,,1,,,13,5
,html-keyboard-response,392,1435289,0.0-11.0-10.0-6.0-0.0,432,"<div><div style=""""><a style=""white-space:pre-wrap;""> while a <= 11:
   a *= 2
   a -= 5</a><a style=""""></a></div></div>",backspace,,1,,,backspace,
,html-keyboard-response,393,1441915,0.0-11.0-11.0-0.0-0.0,6109,"<div><div style=""""><a style=""white-space:pre-wrap;""> while a >= 6:
   a += 4
   a -= 7</a><a style=""""></a></div></div>",17,,1,,,17,0
,html-keyboard-response,394,1443468,0.0-11.0-11.0-1.0-0.0,1043,"<div><div style=""""><a style=""white-space:pre-wrap;""> while a >= 6:
   a += 4
   a -= 7</a><a style=""""></a></div></div>",10,,1,,,10,1
,html-keyboard-response,395,1445629,0.0-11.0-11.0-2.0-0.0,1650,"<div><div style=""""><a style=""white-space:pre-wrap;""> while a >= 6:
   a += 4
   a -= 7</a><a style=""""></a></div></div>",14,,1,,,14,2
,html-keyboard-response,396,1448988,0.0-11.0-11.0-3.0-0.0,2844,"<div><div style=""""><a style=""white-space:pre-wrap;""> while a >= 6:
   a += 4
   a -= 7</a><a style=""""></a></div></div>",7,,1,,,7,3
,html-keyboard-response,397,1453501,0.0-11.0-11.0-4.0-0.0,4006,"<div><div style=""""><a style=""white-space:pre-wrap;""> while a >= 6:
   a += 4
   a -= 7</a><a style=""""></a></div></div>",11,,1,,,11,4
,html-keyboard-response,398,1456474,0.0-11.0-11.0-5.0-0.0,2457,"<div><div style=""""><a style=""white-space:pre-wrap;""> while a >= 6:
   a += 4
   a -= 7</a><a style=""""></a></div></div>",4,,1,,,4,5
,html-keyboard-response,399,1457421,0.0-11.0-11.0-6.0-0.0,430,"<div><div style=""""><a style=""white-space:pre-wrap;""> while a >= 6:
   a += 4
   a -= 7</a><a style=""""></a></div></div>",backspace,,1,,,backspace,
,html-keyboard-response,400,1544946,0.0-12.0-0.0-0.0,87016,"<p style=""position:absolute; top:30%; font-size:25px; color:green;"" >Take a short break now</p>", ,,,,,,
,html-keyboard-response,401,1547629,0.0-12.0-1.0,2681,"<p style=""font-size: 25px;"">Please press space to start the next program<br>>>>>>></p>", ,,,,,,
,html-keyboard-response,402,1550416,0.0-12.0-2.0,2786,"<div><div style="" font-size:25px; color:green;""><a style=""white-space:pre-wrap;""> a = 8</a><a style=""""></a></div></div>",,null,,46,a = 8,,
,html-keyboard-response,403,1553533,0.0-12.0-4.0-0.0-0.0,2602,"<div><div style=""""><a style=""white-space:pre-wrap;""> while a <= 17:
   a -= 2
   a += 6</a><a style=""""></a></div></div>",6,,1,,,6,0
,html-keyboard-response,404,1554988,0.0-12.0-4.0-1.0-0.0,947,"<div><div style=""""><a style=""white-space:pre-wrap;""> while a <= 17:
   a -= 2
   a += 6</a><a style=""""></a></div></div>",12,,1,,,12,1
,html-keyboard-response,405,1556970,0.0-12.0-4.0-2.0-0.0,1472,"<div><div style=""""><a style=""white-space:pre-wrap;""> while a <= 17:
   a -= 2
   a += 6</a><a style=""""></a></div></div>",10,,1,,,10,2
,html-keyboard-response,406,1558372,0.0-12.0-4.0-3.0-0.0,894,"<div><div style=""""><a style=""white-space:pre-wrap;""> while a <= 17:
   a -= 2
   a += 6</a><a style=""""></a></div></div>",16,,1,,,16,3
,html-keyboard-response,407,1560868,0.0-12.0-4.0-4.0-0.0,1981,"<div><div style=""""><a style=""white-space:pre-wrap;""> while a <= 17:
   a -= 2
   a += 6</a><a style=""""></a></div></div>",14,,1,,,14,4
,html-keyboard-response,408,1561870,0.0-12.0-4.0-5.0-0.0,492,"<div><div style=""""><a style=""white-space:pre-wrap;""> while a <= 17:
   a -= 2
   a += 6</a><a style=""""></a></div></div>",20,,1,,,20,5
,html-keyboard-response,409,1562933,0.0-12.0-4.0-6.0-0.0,548,"<div><div style=""""><a style=""white-space:pre-wrap;""> while a <= 17:
   a -= 2
   a += 6</a><a style=""""></a></div></div>",backspace,,1,,,backspace,
,html-keyboard-response,410,1566137,0.0-12.0-5.0-0.0-0.0,2689,"<div><div style=""""><a style=""white-space:pre-wrap;""> while a >= 8:
   a /= 2</a><a style=""""></a></div></div>",10,,1,,,10,0
,html-keyboard-response,411,1568100,0.0-12.0-5.0-1.0-0.0,1454,"<div><div style=""""><a style=""white-space:pre-wrap;""> while a >= 8:
   a /= 2</a><a style=""""></a></div></div>",5,,1,,,5,1
,html-keyboard-response,412,1569079,0.0-12.0-5.0-2.0-0.0,467,"<div><div style=""""><a style=""white-space:pre-wrap;""> while a >= 8:
   a /= 2</a><a style=""""></a></div></div>",backspace,,1,,,backspace,
,html-keyboard-response,413,1582173,0.0-12.0-6.0-0.0-0.0,12591,"<div><div style=""""><a style=""white-space:pre-wrap;""> for i in [1, 2, 3]:
   a = round_up(a*1.5)</a><a style=""""></a></div></div>",7,,0,,,8,0
,html-keyboard-response,415,1595460,0.0-12.0-6.0-1.0-0.0,9275,"<div><div style=""""><a style=""white-space:pre-wrap;""> for i in [1, 2, 3]:
   a = round_up(a*1.5)</a><a style=""""></a></div></div>",11,,0,,,12,1
,html-keyboard-response,417,1606908,0.0-12.0-6.0-2.0-0.0,7426,"<div><div style=""""><a style=""white-space:pre-wrap;""> for i in [1, 2, 3]:
   a = round_up(a*1.5)</a><a style=""""></a></div></div>",18,,1,,,18,2
,html-keyboard-response,418,1608622,0.0-12.0-6.0-3.0-0.0,1197,"<div><div style=""""><a style=""white-space:pre-wrap;""> for i in [1, 2, 3]:
   a = round_up(a*1.5)</a><a style=""""></a></div></div>",backspace,,1,,,backspace,
,html-keyboard-response,419,1613589,0.0-12.0-7.0-0.0-0.0,4452,"<div><div style=""""><a style=""white-space:pre-wrap;""> while a >= 4:
   a = average(a,2)</a><a style=""""></a></div></div>",10,,1,,,10,0
,html-keyboard-response,420,1616163,0.0-12.0-7.0-1.0-0.0,2058,"<div><div style=""""><a style=""white-space:pre-wrap;""> while a >= 4:
   a = average(a,2)</a><a style=""""></a></div></div>",6,,1,,,6,1
,html-keyboard-response,421,1620309,0.0-12.0-7.0-2.0-0.0,3638,"<div><div style=""""><a style=""white-space:pre-wrap;""> while a >= 4:
   a = average(a,2)</a><a style=""""></a></div></div>",4,,1,,,4,2
,html-keyboard-response,422,1623936,0.0-12.0-7.0-3.0-0.0,3111,"<div><div style=""""><a style=""white-space:pre-wrap;""> while a >= 4:
   a = average(a,2)</a><a style=""""></a></div></div>",3,,1,,,3,3
,html-keyboard-response,423,1624928,0.0-12.0-7.0-4.0-0.0,474,"<div><div style=""""><a style=""white-space:pre-wrap;""> while a >= 4:
   a = average(a,2)</a><a style=""""></a></div></div>",backspace,,1,,,backspace,
,html-keyboard-response,424,1628715,0.0-12.0-8.0-0.0-0.0,3275,"<div><div style=""""><a style=""white-space:pre-wrap;""> while a <= 5:
   a += 7
   a /= 2</a><a style=""""></a></div></div>",10,,1,,,10,0
,html-keyboard-response,425,1630388,0.0-12.0-8.0-1.0-0.0,1162,"<div><div style=""""><a style=""white-space:pre-wrap;""> while a <= 5:
   a += 7
   a /= 2</a><a style=""""></a></div></div>",5,,1,,,5,1
,html-keyboard-response,426,1632869,0.0-12.0-8.0-2.0-0.0,1964,"<div><div style=""""><a style=""white-space:pre-wrap;""> while a <= 5:
   a += 7
   a /= 2</a><a style=""""></a></div></div>",12,,1,,,12,2
,html-keyboard-response,427,1635491,0.0-12.0-8.0-3.0-0.0,2106,"<div><div style=""""><a style=""white-space:pre-wrap;""> while a <= 5:
   a += 7
   a /= 2</a><a style=""""></a></div></div>",6,,1,,,6,3
,html-keyboard-response,428,1636770,0.0-12.0-8.0-4.0-0.0,761,"<div><div style=""""><a style=""white-space:pre-wrap;""> while a <= 5:
   a += 7
   a /= 2</a><a style=""""></a></div></div>",backspace,,1,,,backspace,
,html-keyboard-response,429,1639501,0.0-12.0-9.0-0.0-0.0,2060,"<div><div style=""""><a style=""white-space:pre-wrap;""> for i in [1, 2, 3, 4]:
   a += 3</a><a style=""""></a></div></div>",9,,1,,,9,0
,html-keyboard-response,430,1641852,0.0-12.0-9.0-1.0-0.0,1845,"<div><div style=""""><a style=""white-space:pre-wrap;""> for i in [1, 2, 3, 4]:
   a += 3</a><a style=""""></a></div></div>",12,,1,,,12,1
,html-keyboard-response,431,1643674,0.0-12.0-9.0-2.0-0.0,1310,"<div><div style=""""><a style=""white-space:pre-wrap;""> for i in [1, 2, 3, 4]:
   a += 3</a><a style=""""></a></div></div>",15,,1,,,15,2
,html-keyboard-response,432,1645312,0.0-12.0-9.0-3.0-0.0,1121,"<div><div style=""""><a style=""white-space:pre-wrap;""> for i in [1, 2, 3, 4]:
   a += 3</a><a style=""""></a></div></div>",18,,1,,,18,3
,html-keyboard-response,433,1646675,0.0-12.0-9.0-4.0-0.0,854,"<div><div style=""""><a style=""white-space:pre-wrap;""> for i in [1, 2, 3, 4]:
   a += 3</a><a style=""""></a></div></div>",backspace,,1,,,backspace,
,html-keyboard-response,434,1650504,0.0-12.0-10.0-0.0-0.0,3316,"<div><div style=""""><a style=""white-space:pre-wrap;""> while a >= 12:
   a /= 3
   a *= 2</a><a style=""""></a></div></div>",6,,1,,,6,0
,html-keyboard-response,435,1652912,0.0-12.0-10.0-1.0-0.0,1893,"<div><div style=""""><a style=""white-space:pre-wrap;""> while a >= 12:
   a /= 3
   a *= 2</a><a style=""""></a></div></div>",12,,1,,,12,1
,html-keyboard-response,436,1655794,0.0-12.0-10.0-2.0-0.0,2372,"<div><div style=""""><a style=""white-space:pre-wrap;""> while a >= 12:
   a /= 3
   a *= 2</a><a style=""""></a></div></div>",4,,1,,,4,2
,html-keyboard-response,437,1656810,0.0-12.0-10.0-3.0-0.0,507,"<div><div style=""""><a style=""white-space:pre-wrap;""> while a >= 12:
   a /= 3
   a *= 2</a><a style=""""></a></div></div>",8,,1,,,8,3
,html-keyboard-response,438,1658541,0.0-12.0-10.0-4.0-0.0,1227,"<div><div style=""""><a style=""white-space:pre-wrap;""> while a >= 12:
   a /= 3
   a *= 2</a><a style=""""></a></div></div>",backspace,,1,,,backspace,
,html-keyboard-response,439,1661137,0.0-12.0-11.0-0.0-0.0,2080,"<div><div style=""""><a style=""white-space:pre-wrap;""> while a >= 3:
   a *= 2
   a -= 9</a><a style=""""></a></div></div>",16,,1,,,16,0
,html-keyboard-response,440,1664548,0.0-12.0-11.0-1.0-0.0,2899,"<div><div style=""""><a style=""white-space:pre-wrap;""> while a >= 3:
   a *= 2
   a -= 9</a><a style=""""></a></div></div>",7,,1,,,7,1
,html-keyboard-response,441,1667327,0.0-12.0-11.0-2.0-0.0,2272,"<div><div style=""""><a style=""white-space:pre-wrap;""> while a >= 3:
   a *= 2
   a -= 9</a><a style=""""></a></div></div>",14,,1,,,14,2
,html-keyboard-response,442,1670950,0.0-12.0-11.0-3.0-0.0,3117,"<div><div style=""""><a style=""white-space:pre-wrap;""> while a >= 3:
   a *= 2
   a -= 9</a><a style=""""></a></div></div>",5,,1,,,5,3
,html-keyboard-response,443,1672617,0.0-12.0-11.0-4.0-0.0,1163,"<div><div style=""""><a style=""white-space:pre-wrap;""> while a >= 3:
   a *= 2
   a -= 9</a><a style=""""></a></div></div>",backspace,,0,,,10,4
,html-keyboard-response,445,1679630,0.0-12.0-11.0-5.0-0.0,2995,"<div><div style=""""><a style=""white-space:pre-wrap;""> while a >= 3:
   a *= 2
   a -= 9</a><a style=""""></a></div></div>",1,,1,,,1,5
,html-keyboard-response,446,1681439,0.0-12.0-11.0-6.0-0.0,1296,"<div><div style=""""><a style=""white-space:pre-wrap;""> while a >= 3:
   a *= 2
   a -= 9</a><a style=""""></a></div></div>",backspace,,1,,,backspace,
,html-keyboard-response,447,1687226,0.0-13.0-1.0,5276,"<p style=""font-size: 25px;"">Please press space to start the next program<br>>>>>>></p>", ,,,,,,
,html-keyboard-response,448,1692190,0.0-13.0-2.0,4962,"<div><div style="" font-size:25px; color:green;""><a style=""white-space:pre-wrap;""> a = 11</a><a style=""""></a></div></div>",,null,,55,a = 11,,
,html-keyboard-response,449,1696645,0.0-13.0-4.0-0.0-0.0,3940,"<div><div style=""""><a style=""white-space:pre-wrap;""> while a >= 5:
   a += 4
   a /= 3</a><a style=""""></a></div></div>",15,,1,,,15,0
,html-keyboard-response,450,1698243,0.0-13.0-4.0-1.0-0.0,1087,"<div><div style=""""><a style=""white-space:pre-wrap;""> while a >= 5:
   a += 4
   a /= 3</a><a style=""""></a></div></div>",5,,1,,,5,1
,html-keyboard-response,451,1700501,0.0-13.0-4.0-2.0-0.0,1752,"<div><div style=""""><a style=""white-space:pre-wrap;""> while a >= 5:
   a += 4
   a /= 3</a><a style=""""></a></div></div>",9,,1,,,9,2
,html-keyboard-response,452,1702374,0.0-13.0-4.0-3.0-0.0,1360,"<div><div style=""""><a style=""white-space:pre-wrap;""> while a >= 5:
   a += 4
   a /= 3</a><a style=""""></a></div></div>",3,,1,,,3,3
,html-keyboard-response,453,1704133,0.0-13.0-4.0-4.0-0.0,1242,"<div><div style=""""><a style=""white-space:pre-wrap;""> while a >= 5:
   a += 4
   a /= 3</a><a style=""""></a></div></div>",backspace,,1,,,backspace,
,html-keyboard-response,454,1715033,0.0-13.0-5.0-0.0-0.0,10396,"<div><div style=""""><a style=""white-space:pre-wrap;""> for i in [1, 2]:
   a = round_down(a*2.5)</a><a style=""""></a></div></div>",7,,1,,,7,0
,html-keyboard-response,455,1724147,0.0-13.0-5.0-1.0-0.0,8598,"<div><div style=""""><a style=""white-space:pre-wrap;""> for i in [1, 2]:
   a = round_down(a*2.5)</a><a style=""""></a></div></div>",17,,1,,,17,1
,html-keyboard-response,456,1725327,0.0-13.0-5.0-2.0-0.0,666,"<div><div style=""""><a style=""white-space:pre-wrap;""> for i in [1, 2]:
   a = round_down(a*2.5)</a><a style=""""></a></div></div>",backspace,,1,,,backspace,
,html-keyboard-response,457,1728689,0.0-13.0-6.0-0.0-0.0,2843,"<div><div style=""""><a style=""white-space:pre-wrap;""> for i in [1, 2, 3, 4]:
   a = average(a,1)</a><a style=""""></a></div></div>",9,,1,,,9,0
,html-keyboard-response,458,1731140,0.0-13.0-6.0-1.0-0.0,1943,"<div><div style=""""><a style=""white-space:pre-wrap;""> for i in [1, 2, 3, 4]:
   a = average(a,1)</a><a style=""""></a></div></div>",5,,1,,,5,1
,html-keyboard-response,459,1736006,0.0-13.0-6.0-2.0-0.0,4352,"<div><div style=""""><a style=""white-space:pre-wrap;""> for i in [1, 2, 3, 4]:
   a = average(a,1)</a><a style=""""></a></div></div>",3,,1,,,3,2
,html-keyboard-response,460,1740563,0.0-13.0-6.0-3.0-0.0,4040,"<div><div style=""""><a style=""white-space:pre-wrap;""> for i in [1, 2, 3, 4]:
   a = average(a,1)</a><a style=""""></a></div></div>",2,,1,,,2,3
,html-keyboard-response,461,1745867,0.0-13.0-6.0-4.0-0.0,4790,"<div><div style=""""><a style=""white-space:pre-wrap;""> for i in [1, 2, 3, 4]:
   a = average(a,1)</a><a style=""""></a></div></div>",backspace,,1,,,backspace,
,html-keyboard-response,462,1753607,0.0-13.0-7.0-0.0-0.0,7230,"<div><div style=""""><a style=""white-space:pre-wrap;""> for i in [1, 2]:
   a *= 3
   a -= 1</a><a style=""""></a></div></div>",6,,1,,,6,0
,html-keyboard-response,463,1755192,0.0-13.0-7.0-1.0-0.0,1074,"<div><div style=""""><a style=""white-space:pre-wrap;""> for i in [1, 2]:
   a *= 3
   a -= 1</a><a style=""""></a></div></div>",5,,1,,,5,1
,html-keyboard-response,464,1756702,0.0-13.0-7.0-2.0-0.0,993,"<div><div style=""""><a style=""white-space:pre-wrap;""> for i in [1, 2]:
   a *= 3
   a -= 1</a><a style=""""></a></div></div>",15,,1,,,15,2
,html-keyboard-response,465,1757656,0.0-13.0-7.0-3.0-0.0,440,"<div><div style=""""><a style=""white-space:pre-wrap;""> for i in [1, 2]:
   a *= 3
   a -= 1</a><a style=""""></a></div></div>",14,,1,,,14,3
,html-keyboard-response,466,1758749,0.0-13.0-7.0-4.0-0.0,585,"<div><div style=""""><a style=""white-space:pre-wrap;""> for i in [1, 2]:
   a *= 3
   a -= 1</a><a style=""""></a></div></div>",backspace,,1,,,backspace,
,html-keyboard-response,467,1764154,0.0-13.0-8.0-0.0-0.0,4897,"<div><div style=""""><a style=""white-space:pre-wrap;""> while a >= 4:
   a -= 5
   a += 1</a><a style=""""></a></div></div>",9,,1,,,9,0
,html-keyboard-response,468,1765922,0.0-13.0-8.0-1.0-0.0,1265,"<div><div style=""""><a style=""white-space:pre-wrap;""> while a >= 4:
   a -= 5
   a += 1</a><a style=""""></a></div></div>",10,,1,,,10,1
,html-keyboard-response,469,1767948,0.0-13.0-8.0-2.0-0.0,1523,"<div><div style=""""><a style=""white-space:pre-wrap;""> while a >= 4:
   a -= 5
   a += 1</a><a style=""""></a></div></div>",5,,1,,,5,2
,html-keyboard-response,470,1769340,0.0-13.0-8.0-3.0-0.0,881,"<div><div style=""""><a style=""white-space:pre-wrap;""> while a >= 4:
   a -= 5
   a += 1</a><a style=""""></a></div></div>",6,,1,,,6,3
,html-keyboard-response,471,1773733,0.0-13.0-8.0-4.0-0.0,3890,"<div><div style=""""><a style=""white-space:pre-wrap;""> while a >= 4:
   a -= 5
   a += 1</a><a style=""""></a></div></div>",1,,1,,,1,4
,html-keyboard-response,472,1774450,0.0-13.0-8.0-5.0-0.0,213,"<div><div style=""""><a style=""white-space:pre-wrap;""> while a >= 4:
   a -= 5
   a += 1</a><a style=""""></a></div></div>",2,,1,,,2,5
,html-keyboard-response,473,1775524,0.0-13.0-8.0-6.0-0.0,564,"<div><div style=""""><a style=""white-space:pre-wrap;""> while a >= 4:
   a -= 5
   a += 1</a><a style=""""></a></div></div>",backspace,,1,,,backspace,
,html-keyboard-response,474,1779284,0.0-13.0-9.0-0.0-0.0,3242,"<div><div style=""""><a style=""white-space:pre-wrap;""> while a <= 15:
   a *= 3</a><a style=""""></a></div></div>",6,,1,,,6,0
,html-keyboard-response,475,1781556,0.0-13.0-9.0-1.0-0.0,1761,"<div><div style=""""><a style=""white-space:pre-wrap;""> while a <= 15:
   a *= 3</a><a style=""""></a></div></div>",18,,1,,,18,1
,html-keyboard-response,476,1782585,0.0-13.0-9.0-2.0-0.0,512,"<div><div style=""""><a style=""white-space:pre-wrap;""> while a <= 15:
   a *= 3</a><a style=""""></a></div></div>",backspace,,1,,,backspace,
,html-keyboard-response,477,1786196,0.0-13.0-10.0-0.0-0.0,3108,"<div><div style=""""><a style=""white-space:pre-wrap;""> while a >= 11:
   a /= 3
   a *= 2</a><a style=""""></a></div></div>",6,,1,,,6,0
,html-keyboard-response,478,1789850,0.0-13.0-10.0-1.0-0.0,3141,"<div><div style=""""><a style=""white-space:pre-wrap;""> while a >= 11:
   a /= 3
   a *= 2</a><a style=""""></a></div></div>",12,,1,,,12,1
,html-keyboard-response,479,1793062,0.0-13.0-10.0-2.0-0.0,2709,"<div><div style=""""><a style=""white-space:pre-wrap;""> while a >= 11:
   a /= 3
   a *= 2</a><a style=""""></a></div></div>",4,,1,,,4,2
,html-keyboard-response,480,1794336,0.0-13.0-10.0-3.0-0.0,767,"<div><div style=""""><a style=""white-space:pre-wrap;""> while a >= 11:
   a /= 3
   a *= 2</a><a style=""""></a></div></div>",8,,1,,,8,3
,html-keyboard-response,481,1795605,0.0-13.0-10.0-4.0-0.0,756,"<div><div style=""""><a style=""white-space:pre-wrap;""> while a >= 11:
   a /= 3
   a *= 2</a><a style=""""></a></div></div>",backspace,,1,,,backspace,
,html-keyboard-response,482,1797949,0.0-13.0-11.0-0.0-0.0,1831,"<div><div style=""""><a style=""white-space:pre-wrap;""> for i in [1, 2, 3]:
   a += 4</a><a style=""""></a></div></div>",12,,1,,,12,0
,html-keyboard-response,483,1799758,0.0-13.0-11.0-1.0-0.0,1291,"<div><div style=""""><a style=""white-space:pre-wrap;""> for i in [1, 2, 3]:
   a += 4</a><a style=""""></a></div></div>",16,,1,,,16,1
,html-keyboard-response,484,1800730,0.0-13.0-11.0-2.0-0.0,459,"<div><div style=""""><a style=""white-space:pre-wrap;""> for i in [1, 2, 3]:
   a += 4</a><a style=""""></a></div></div>",20,,1,,,20,2
,html-keyboard-response,485,1801668,0.0-13.0-11.0-3.0-0.0,428,"<div><div style=""""><a style=""white-space:pre-wrap;""> for i in [1, 2, 3]:
   a += 4</a><a style=""""></a></div></div>",backspace,,1,,,backspace,
TRUE,fullscreen,486,1802175,0.0-14.0,,,,,,,,,
