"success","trial_type","trial_index","time_elapsed","internal_node_id","rt","stimulus","response","expected_response","correct","uid","text1","correct_response","loop_step"
"true","fullscreen","0","44409","0.0-0.0","","","","","","","","",""
"","html-keyboard-response","1","49560","0.0-1.0","5150","Please make sure that your keyboard is in English mode. Press 'A' to continue","a","","","","","",""
"","html-keyboard-response","2","51873","0.0-2.0-1.0","2312","<p style=""font-size: 25px;"">Please press space to start the next program<br>>>>>>></p>"," ","","","","","",""
"","html-keyboard-response","3","53485","0.0-2.0-2.0","1611","<div><div style="" font-size:25px; color:green;""><a style=""white-space:pre-wrap;""> a = 8</a><a style=""""></a></div></div>","","null","","37","a = 8","",""
"","html-keyboard-response","4","55775","0.0-2.0-4.0-0.0-0.0","1778","<div><div style=""""><a style=""white-space:pre-wrap;""> for i in [1, 2, 3]:
   a -= 2
   a += 6</a><a style=""""></a></div></div>","6","6","1","38","for i in [1, 2, 3]:
   a -= 2
   a += 6","6","0"
"","html-keyboard-response","5","56850","0.0-2.0-4.0-1.0-0.0","563","<div><div style=""""><a style=""white-space:pre-wrap;""> for i in [1, 2, 3]:
   a -= 2
   a += 6</a><a style=""""></a></div></div>","12","12","1","38","for i in [1, 2, 3]:
   a -= 2
   a += 6","12","1"
"","html-keyboard-response","6","58110","0.0-2.0-4.0-2.0-0.0","743","<div><div style=""""><a style=""white-space:pre-wrap;""> for i in [1, 2, 3]:
   a -= 2
   a += 6</a><a style=""""></a></div></div>","10","10","1","38","for i in [1, 2, 3]:
   a -= 2
   a += 6","10","2"
"","html-keyboard-response","7","59758","0.0-2.0-4.0-3.0-0.0","1143","<div><div style=""""><a style=""white-space:pre-wrap;""> for i in [1, 2, 3]:
   a -= 2
   a += 6</a><a style=""""></a></div></div>","16","16","1","38","for i in [1, 2, 3]:
   a -= 2
   a += 6","16","3"
"","html-keyboard-response","8","60912","0.0-2.0-4.0-4.0-0.0","634","<div><div style=""""><a style=""white-space:pre-wrap;""> for i in [1, 2, 3]:
   a -= 2
   a += 6</a><a style=""""></a></div></div>","14","14","1","38","for i in [1, 2, 3]:
   a -= 2
   a += 6","14","4"
"","html-keyboard-response","9","61746","0.0-2.0-4.0-5.0-0.0","318","<div><div style=""""><a style=""white-space:pre-wrap;""> for i in [1, 2, 3]:
   a -= 2
   a += 6</a><a style=""""></a></div></div>","20","20","1","38","for i in [1, 2, 3]:
   a -= 2
   a += 6","20","5"
"","html-keyboard-response","10","62451","0.0-2.0-4.0-6.0-0.0","196","<div><div style=""""><a style=""white-space:pre-wrap;""> for i in [1, 2, 3]:
   a -= 2
   a += 6</a><a style=""""></a></div></div>","backspace","","1","","","backspace",""
"","html-keyboard-response","11","66495","0.0-2.0-5.0-0.0-0.0","3534","<div><div style=""""><a style=""white-space:pre-wrap;""> while a >= 8:
   a /= 2</a><a style=""""></a></div></div>","10","10","1","39","while a >= 8:
   a /= 2","10","0"
"","html-keyboard-response","12","68884","0.0-2.0-5.0-1.0-0.0","1884","<div><div style=""""><a style=""white-space:pre-wrap;""> while a >= 8:
   a /= 2</a><a style=""""></a></div></div>","5","5","1","39","while a >= 8:
   a /= 2","5","1"
"","html-keyboard-response","13","69411","0.0-2.0-5.0-2.0-0.0","21","<div><div style=""""><a style=""white-space:pre-wrap;""> while a >= 8:
   a /= 2</a><a style=""""></a></div></div>","backspace","","1","","","backspace",""
"","html-keyboard-response","14","73283","0.0-2.0-6.0-0.0-0.0","3353","<div><div style=""""><a style=""white-space:pre-wrap;""> while a <= 15:
   a = round_up(a*1.5)</a><a style=""""></a></div></div>","8","8","1","40","while a <= 15:
   a = round_up(a*1.5)","8","0"
"","html-keyboard-response","15","76578","0.0-2.0-6.0-1.0-0.0","2778","<div><div style=""""><a style=""white-space:pre-wrap;""> while a <= 15:
   a = round_up(a*1.5)</a><a style=""""></a></div></div>","13","12","0","40","while a <= 15:
   a = round_up(a*1.5)","12","1"
"","html-keyboard-response","17","81033","0.0-2.0-6.0-2.0-0.0","433","<div><div style=""""><a style=""white-space:pre-wrap;""> while a <= 15:
   a = round_up(a*1.5)</a><a style=""""></a></div></div>","16","18","0","40","while a <= 15:
   a = round_up(a*1.5)","18","2"
"","html-keyboard-response","19","86091","0.0-2.0-6.0-3.0-0.0","1051","<div><div style=""""><a style=""white-space:pre-wrap;""> while a <= 15:
   a = round_up(a*1.5)</a><a style=""""></a></div></div>","backspace","","1","","","backspace",""
"","html-keyboard-response","20","89135","0.0-2.0-7.0-0.0-0.0","2525","<div><div style=""""><a style=""white-space:pre-wrap;""> while a >= 4:
   a = average(a,2)</a><a style=""""></a></div></div>","10","10","1","41","while a >= 4:
   a = average(a,2)","10","0"
"","html-keyboard-response","21","91521","0.0-2.0-7.0-1.0-0.0","1871","<div><div style=""""><a style=""white-space:pre-wrap;""> while a >= 4:
   a = average(a,2)</a><a style=""""></a></div></div>","6","6","1","41","while a >= 4:
   a = average(a,2)","6","1"
"","html-keyboard-response","22","93958","0.0-2.0-7.0-2.0-0.0","1922","<div><div style=""""><a style=""white-space:pre-wrap;""> while a >= 4:
   a = average(a,2)</a><a style=""""></a></div></div>","4","4","1","41","while a >= 4:
   a = average(a,2)","4","2"
"","html-keyboard-response","23","96073","0.0-2.0-7.0-3.0-0.0","1608","<div><div style=""""><a style=""white-space:pre-wrap;""> while a >= 4:
   a = average(a,2)</a><a style=""""></a></div></div>","3","3","1","41","while a >= 4:
   a = average(a,2)","3","3"
"","html-keyboard-response","24","96930","0.0-2.0-7.0-4.0-0.0","346","<div><div style=""""><a style=""white-space:pre-wrap;""> while a >= 4:
   a = average(a,2)</a><a style=""""></a></div></div>","backspace","","1","","","backspace",""
"","html-keyboard-response","25","99132","0.0-2.0-8.0-0.0-0.0","1695","<div><div style=""""><a style=""white-space:pre-wrap;""> for i in [1, 2]:
   a += 7
   a /= 2</a><a style=""""></a></div></div>","10","10","1","42","for i in [1, 2]:
   a += 7
   a /= 2","10","0"
"","html-keyboard-response","26","100306","0.0-2.0-8.0-1.0-0.0","666","<div><div style=""""><a style=""white-space:pre-wrap;""> for i in [1, 2]:
   a += 7
   a /= 2</a><a style=""""></a></div></div>","5","5","1","42","for i in [1, 2]:
   a += 7
   a /= 2","5","1"
"","html-keyboard-response","27","102284","0.0-2.0-8.0-2.0-0.0","1473","<div><div style=""""><a style=""white-space:pre-wrap;""> for i in [1, 2]:
   a += 7
   a /= 2</a><a style=""""></a></div></div>","12","12","1","42","for i in [1, 2]:
   a += 7
   a /= 2","12","2"
"","html-keyboard-response","28","103627","0.0-2.0-8.0-3.0-0.0","836","<div><div style=""""><a style=""white-space:pre-wrap;""> for i in [1, 2]:
   a += 7
   a /= 2</a><a style=""""></a></div></div>","5","6","0","42","for i in [1, 2]:
   a += 7
   a /= 2","6","3"
"","html-keyboard-response","30","107943","0.0-2.0-8.0-4.0-0.0","300","<div><div style=""""><a style=""white-space:pre-wrap;""> for i in [1, 2]:
   a += 7
   a /= 2</a><a style=""""></a></div></div>","backspace","","1","","","backspace",""
"","html-keyboard-response","31","111668","0.0-2.0-9.0-0.0-0.0","3216","<div><div style=""""><a style=""white-space:pre-wrap;""> for i in [1, 2, 3, 4]:
   a += 3</a><a style=""""></a></div></div>","9","9","1","43","for i in [1, 2, 3, 4]:
   a += 3","9","0"
"","html-keyboard-response","32","112576","0.0-2.0-9.0-1.0-0.0","404","<div><div style=""""><a style=""white-space:pre-wrap;""> for i in [1, 2, 3, 4]:
   a += 3</a><a style=""""></a></div></div>","12","12","1","43","for i in [1, 2, 3, 4]:
   a += 3","12","1"
"","html-keyboard-response","33","113550","0.0-2.0-9.0-2.0-0.0","459","<div><div style=""""><a style=""white-space:pre-wrap;""> for i in [1, 2, 3, 4]:
   a += 3</a><a style=""""></a></div></div>","15","15","1","43","for i in [1, 2, 3, 4]:
   a += 3","15","2"
"","html-keyboard-response","34","114657","0.0-2.0-9.0-3.0-0.0","585","<div><div style=""""><a style=""white-space:pre-wrap;""> for i in [1, 2, 3, 4]:
   a += 3</a><a style=""""></a></div></div>","18","18","1","43","for i in [1, 2, 3, 4]:
   a += 3","18","3"
"","html-keyboard-response","35","116669","0.0-2.0-9.0-4.0-0.0","1508","<div><div style=""""><a style=""white-space:pre-wrap;""> for i in [1, 2, 3, 4]:
   a += 3</a><a style=""""></a></div></div>","20","","0","","","backspace",""
"","html-keyboard-response","36","120698","0.0-2.0-9.0-4.0-1.0-0.0","null","<div><p style=""font-size:25px; color:green;"">end of loop<br>>>>>>></p>
						<div>Hit the ""end loop"" key to continue</div></div>","null","","","","","",""
"","html-keyboard-response","37","124929","0.0-2.0-9.0-4.1-0.1","4228","<div><div style=""""><a style=""white-space:pre-wrap;""> for i in [1, 2, 3, 4]:
   a += 3</a><a style=""""></a></div></div>","18","","0","","","backspace",""
"","html-keyboard-response","38","128958","0.0-2.0-9.0-4.1-1.1-0.1","null","<div><p style=""font-size:25px; color:green;"">end of loop<br>>>>>>></p>
						<div>Hit the ""end loop"" key to continue</div></div>","null","","","","","",""
"","html-keyboard-response","39","129670","0.0-2.0-9.0-4.2-0.2","710","<div><div style=""""><a style=""white-space:pre-wrap;""> for i in [1, 2, 3, 4]:
   a += 3</a><a style=""""></a></div></div>","backspace","","1","","","backspace",""
"","html-keyboard-response","40","134631","0.0-2.0-10.0-0.0-0.0","4453","<div><div style=""""><a style=""white-space:pre-wrap;""> for i in [1, 2]:
   a /= 3
   a *= 2</a><a style=""""></a></div></div>","6","6","1","44","for i in [1, 2]:
   a /= 3
   a *= 2","6","0"
"","html-keyboard-response","41","136316","0.0-2.0-10.0-1.0-0.0","1177","<div><div style=""""><a style=""white-space:pre-wrap;""> for i in [1, 2]:
   a /= 3
   a *= 2</a><a style=""""></a></div></div>","12","12","1","44","for i in [1, 2]:
   a /= 3
   a *= 2","12","1"
"","html-keyboard-response","42","138175","0.0-2.0-10.0-2.0-0.0","1357","<div><div style=""""><a style=""white-space:pre-wrap;""> for i in [1, 2]:
   a /= 3
   a *= 2</a><a style=""""></a></div></div>","4","4","1","44","for i in [1, 2]:
   a /= 3
   a *= 2","4","2"
"","html-keyboard-response","43","140255","0.0-2.0-10.0-3.0-0.0","1576","<div><div style=""""><a style=""white-space:pre-wrap;""> for i in [1, 2]:
   a /= 3
   a *= 2</a><a style=""""></a></div></div>","8","8","1","44","for i in [1, 2]:
   a /= 3
   a *= 2","8","3"
"","html-keyboard-response","44","141130","0.0-2.0-10.0-4.0-0.0","363","<div><div style=""""><a style=""white-space:pre-wrap;""> for i in [1, 2]:
   a /= 3
   a *= 2</a><a style=""""></a></div></div>","backspace","","1","","","backspace",""
"","html-keyboard-response","45","144893","0.0-2.0-11.0-0.0-0.0","3253","<div><div style=""""><a style=""white-space:pre-wrap;""> while a >= 3:
   a *= 2
   a -= 9</a><a style=""""></a></div></div>","16","16","1","45","while a >= 3:
   a *= 2
   a -= 9","16","0"
"","html-keyboard-response","46","147857","0.0-2.0-11.0-1.0-0.0","2453","<div><div style=""""><a style=""white-space:pre-wrap;""> while a >= 3:
   a *= 2
   a -= 9</a><a style=""""></a></div></div>","9","7","0","45","while a >= 3:
   a *= 2
   a -= 9","7","1"
"","html-keyboard-response","48","152385","0.0-2.0-11.0-2.0-0.0","506","<div><div style=""""><a style=""white-space:pre-wrap;""> while a >= 3:
   a *= 2
   a -= 9</a><a style=""""></a></div></div>","14","14","1","45","while a >= 3:
   a *= 2
   a -= 9","14","2"
"","html-keyboard-response","49","154578","0.0-2.0-11.0-3.0-0.0","1679","<div><div style=""""><a style=""white-space:pre-wrap;""> while a >= 3:
   a *= 2
   a -= 9</a><a style=""""></a></div></div>","5","5","1","45","while a >= 3:
   a *= 2
   a -= 9","5","3"
"","html-keyboard-response","50","156039","0.0-2.0-11.0-4.0-0.0","941","<div><div style=""""><a style=""white-space:pre-wrap;""> while a >= 3:
   a *= 2
   a -= 9</a><a style=""""></a></div></div>","backspace","10","0","45","while a >= 3:
   a *= 2
   a -= 9","10","4"
"","html-keyboard-response","52","161954","0.0-2.0-11.0-5.0-0.0","1875","<div><div style=""""><a style=""white-space:pre-wrap;""> while a >= 3:
   a *= 2
   a -= 9</a><a style=""""></a></div></div>","1","1","1","45","while a >= 3:
   a *= 2
   a -= 9","1","5"
"","html-keyboard-response","53","163190","0.0-2.0-11.0-6.0-0.0","731","<div><div style=""""><a style=""white-space:pre-wrap;""> while a >= 3:
   a *= 2
   a -= 9</a><a style=""""></a></div></div>","backspace","","1","","","backspace",""
"","html-keyboard-response","54","168831","0.0-3.0-1.0","5130","<p style=""font-size: 25px;"">Please press space to start the next program<br>>>>>>></p>"," ","","","","","",""
"","html-keyboard-response","55","172225","0.0-3.0-2.0","3393","<div><div style="" font-size:25px; color:green;""><a style=""white-space:pre-wrap;""> a = 11</a><a style=""""></a></div></div>","","null","","64","a = 11","",""
"","html-keyboard-response","56","177430","0.0-3.0-4.0-0.0-0.0","4691","<div><div style=""""><a style=""white-space:pre-wrap;""> for i in [1, 2]:
   a += 4
   a /= 3</a><a style=""""></a></div></div>","15","15","1","65","for i in [1, 2]:
   a += 4
   a /= 3","15","0"
"","html-keyboard-response","57","178647","0.0-3.0-4.0-1.0-0.0","708","<div><div style=""""><a style=""white-space:pre-wrap;""> for i in [1, 2]:
   a += 4
   a /= 3</a><a style=""""></a></div></div>","5","5","1","65","for i in [1, 2]:
   a += 4
   a /= 3","5","1"
"","html-keyboard-response","58","181267","0.0-3.0-4.0-2.0-0.0","2113","<div><div style=""""><a style=""white-space:pre-wrap;""> for i in [1, 2]:
   a += 4
   a /= 3</a><a style=""""></a></div></div>","9","9","1","65","for i in [1, 2]:
   a += 4
   a /= 3","9","2"
"","html-keyboard-response","59","182557","0.0-3.0-4.0-3.0-0.0","782","<div><div style=""""><a style=""white-space:pre-wrap;""> for i in [1, 2]:
   a += 4
   a /= 3</a><a style=""""></a></div></div>","3","3","1","65","for i in [1, 2]:
   a += 4
   a /= 3","3","3"
"","html-keyboard-response","60","183397","0.0-3.0-4.0-4.0-0.0","323","<div><div style=""""><a style=""white-space:pre-wrap;""> for i in [1, 2]:
   a += 4
   a /= 3</a><a style=""""></a></div></div>","backspace","","1","","","backspace",""
"","html-keyboard-response","61","186531","0.0-3.0-5.0-0.0-0.0","2615","<div><div style=""""><a style=""white-space:pre-wrap;""> for i in [1, 2]:
   a = round_down(a*2.5)</a><a style=""""></a></div></div>","9","7","0","66","for i in [1, 2]:
   a = round_down(a*2.5)","7","0"
"","html-keyboard-response","63","192511","0.0-3.0-5.0-1.0-0.0","1955","<div><div style=""""><a style=""white-space:pre-wrap;""> for i in [1, 2]:
   a = round_down(a*2.5)</a><a style=""""></a></div></div>","18","17","0","66","for i in [1, 2]:
   a = round_down(a*2.5)","17","1"
"","html-keyboard-response","65","196894","0.0-3.0-5.0-2.0-0.0","349","<div><div style=""""><a style=""white-space:pre-wrap;""> for i in [1, 2]:
   a = round_down(a*2.5)</a><a style=""""></a></div></div>","backspace","","1","","","backspace",""
"","html-keyboard-response","66","200457","0.0-3.0-6.0-0.0-0.0","3051","<div><div style=""""><a style=""white-space:pre-wrap;""> while a >= 3:
   a = average(a,1)</a><a style=""""></a></div></div>","9","9","1","67","while a >= 3:
   a = average(a,1)","9","0"
"","html-keyboard-response","67","202558","0.0-3.0-6.0-1.0-0.0","1584","<div><div style=""""><a style=""white-space:pre-wrap;""> while a >= 3:
   a = average(a,1)</a><a style=""""></a></div></div>","5","5","1","67","while a >= 3:
   a = average(a,1)","5","1"
"","html-keyboard-response","68","204132","0.0-3.0-6.0-2.0-0.0","1067","<div><div style=""""><a style=""white-space:pre-wrap;""> while a >= 3:
   a = average(a,1)</a><a style=""""></a></div></div>","3","3","1","67","while a >= 3:
   a = average(a,1)","3","2"
"","html-keyboard-response","69","205755","0.0-3.0-6.0-3.0-0.0","1120","<div><div style=""""><a style=""white-space:pre-wrap;""> while a >= 3:
   a = average(a,1)</a><a style=""""></a></div></div>","2","2","1","67","while a >= 3:
   a = average(a,1)","2","3"
"","html-keyboard-response","70","206658","0.0-3.0-6.0-4.0-0.0","385","<div><div style=""""><a style=""white-space:pre-wrap;""> while a >= 3:
   a = average(a,1)</a><a style=""""></a></div></div>","backspace","","1","","","backspace",""
"","html-keyboard-response","71","209255","0.0-3.0-7.0-0.0-0.0","2080","<div><div style=""""><a style=""white-space:pre-wrap;""> for i in [1, 2]:
   a *= 3
   a -= 1</a><a style=""""></a></div></div>","6","6","1","68","for i in [1, 2]:
   a *= 3
   a -= 1","6","0"
"","html-keyboard-response","72","210314","0.0-3.0-7.0-1.0-0.0","539","<div><div style=""""><a style=""white-space:pre-wrap;""> for i in [1, 2]:
   a *= 3
   a -= 1</a><a style=""""></a></div></div>","5","5","1","68","for i in [1, 2]:
   a *= 3
   a -= 1","5","1"
"","html-keyboard-response","73","212247","0.0-3.0-7.0-2.0-0.0","1413","<div><div style=""""><a style=""white-space:pre-wrap;""> for i in [1, 2]:
   a *= 3
   a -= 1</a><a style=""""></a></div></div>","15","15","1","68","for i in [1, 2]:
   a *= 3
   a -= 1","15","2"
"","html-keyboard-response","74","212895","0.0-3.0-7.0-3.0-0.0","141","<div><div style=""""><a style=""white-space:pre-wrap;""> for i in [1, 2]:
   a *= 3
   a -= 1</a><a style=""""></a></div></div>","14","14","1","68","for i in [1, 2]:
   a *= 3
   a -= 1","14","3"
"","html-keyboard-response","75","213685","0.0-3.0-7.0-4.0-0.0","271","<div><div style=""""><a style=""white-space:pre-wrap;""> for i in [1, 2]:
   a *= 3
   a -= 1</a><a style=""""></a></div></div>","backspace","","1","","","backspace",""
"","html-keyboard-response","76","216003","0.0-3.0-8.0-0.0-0.0","1808","<div><div style=""""><a style=""white-space:pre-wrap;""> for i in [1, 2, 3]:
   a -= 5
   a += 1</a><a style=""""></a></div></div>","9","9","1","69","for i in [1, 2, 3]:
   a -= 5
   a += 1","9","0"
"","html-keyboard-response","77","217207","0.0-3.0-8.0-1.0-0.0","702","<div><div style=""""><a style=""white-space:pre-wrap;""> for i in [1, 2, 3]:
   a -= 5
   a += 1</a><a style=""""></a></div></div>","10","10","1","69","for i in [1, 2, 3]:
   a -= 5
   a += 1","10","1"
"","html-keyboard-response","78","218949","0.0-3.0-8.0-2.0-0.0","1224","<div><div style=""""><a style=""white-space:pre-wrap;""> for i in [1, 2, 3]:
   a -= 5
   a += 1</a><a style=""""></a></div></div>","5","5","1","69","for i in [1, 2, 3]:
   a -= 5
   a += 1","5","2"
"","html-keyboard-response","79","220502","0.0-3.0-8.0-3.0-0.0","1047","<div><div style=""""><a style=""white-space:pre-wrap;""> for i in [1, 2, 3]:
   a -= 5
   a += 1</a><a style=""""></a></div></div>","6","6","1","69","for i in [1, 2, 3]:
   a -= 5
   a += 1","6","3"
"","html-keyboard-response","80","221978","0.0-3.0-8.0-4.0-0.0","963","<div><div style=""""><a style=""white-space:pre-wrap;""> for i in [1, 2, 3]:
   a -= 5
   a += 1</a><a style=""""></a></div></div>","2","1","0","69","for i in [1, 2, 3]:
   a -= 5
   a += 1","1","4"
"","html-keyboard-response","82","226329","0.0-3.0-8.0-5.0-0.0","323","<div><div style=""""><a style=""white-space:pre-wrap;""> for i in [1, 2, 3]:
   a -= 5
   a += 1</a><a style=""""></a></div></div>","2","2","1","69","for i in [1, 2, 3]:
   a -= 5
   a += 1","2","5"
"","html-keyboard-response","83","227146","0.0-3.0-8.0-6.0-0.0","311","<div><div style=""""><a style=""white-space:pre-wrap;""> for i in [1, 2, 3]:
   a -= 5
   a += 1</a><a style=""""></a></div></div>","backspace","","1","","","backspace",""
"","html-keyboard-response","84","231877","0.0-3.0-9.0-0.0-0.0","4222","<div><div style=""""><a style=""white-space:pre-wrap;""> while a <= 15:
   a *= 3</a><a style=""""></a></div></div>","6","6","1","70","while a <= 15:
   a *= 3","6","0"
"","html-keyboard-response","85","234918","0.0-3.0-9.0-1.0-0.0","2533","<div><div style=""""><a style=""white-space:pre-wrap;""> while a <= 15:
   a *= 3</a><a style=""""></a></div></div>","18","18","1","70","while a <= 15:
   a *= 3","18","1"
"","html-keyboard-response","86","235883","0.0-3.0-9.0-2.0-0.0","447","<div><div style=""""><a style=""white-space:pre-wrap;""> while a <= 15:
   a *= 3</a><a style=""""></a></div></div>","backspace","","1","","","backspace",""
"","html-keyboard-response","87","238146","0.0-3.0-10.0-0.0-0.0","1754","<div><div style=""""><a style=""white-space:pre-wrap;""> for i in [1, 2]:
   a /= 3
   a *= 2</a><a style=""""></a></div></div>","6","6","1","71","for i in [1, 2]:
   a /= 3
   a *= 2","6","0"
"","html-keyboard-response","88","240024","0.0-3.0-10.0-1.0-0.0","1369","<div><div style=""""><a style=""white-space:pre-wrap;""> for i in [1, 2]:
   a /= 3
   a *= 2</a><a style=""""></a></div></div>","12","12","1","71","for i in [1, 2]:
   a /= 3
   a *= 2","12","1"
"","html-keyboard-response","89","243387","0.0-3.0-10.0-2.0-0.0","2850","<div><div style=""""><a style=""white-space:pre-wrap;""> for i in [1, 2]:
   a /= 3
   a *= 2</a><a style=""""></a></div></div>","4","4","1","71","for i in [1, 2]:
   a /= 3
   a *= 2","4","2"
"","html-keyboard-response","90","245248","0.0-3.0-10.0-3.0-0.0","1350","<div><div style=""""><a style=""white-space:pre-wrap;""> for i in [1, 2]:
   a /= 3
   a *= 2</a><a style=""""></a></div></div>","8","8","1","71","for i in [1, 2]:
   a /= 3
   a *= 2","8","3"
"","html-keyboard-response","91","246107","0.0-3.0-10.0-4.0-0.0","339","<div><div style=""""><a style=""white-space:pre-wrap;""> for i in [1, 2]:
   a /= 3
   a *= 2</a><a style=""""></a></div></div>","backspace","","1","","","backspace",""
"","html-keyboard-response","92","250012","0.0-3.0-11.0-0.0-0.0","3394","<div><div style=""""><a style=""white-space:pre-wrap;""> for i in [1, 2, 3]:
   a += 4</a><a style=""""></a></div></div>","12","12","1","72","for i in [1, 2, 3]:
   a += 4","12","0"
"","html-keyboard-response","93","251353","0.0-3.0-11.0-1.0-0.0","835","<div><div style=""""><a style=""white-space:pre-wrap;""> for i in [1, 2, 3]:
   a += 4</a><a style=""""></a></div></div>","16","16","1","72","for i in [1, 2, 3]:
   a += 4","16","1"
"","html-keyboard-response","94","252209","0.0-3.0-11.0-2.0-0.0","351","<div><div style=""""><a style=""white-space:pre-wrap;""> for i in [1, 2, 3]:
   a += 4</a><a style=""""></a></div></div>","20","20","1","72","for i in [1, 2, 3]:
   a += 4","20","2"
"","html-keyboard-response","95","253006","0.0-3.0-11.0-3.0-0.0","289","<div><div style=""""><a style=""white-space:pre-wrap;""> for i in [1, 2, 3]:
   a += 4</a><a style=""""></a></div></div>","backspace","","1","","","backspace",""
"","html-keyboard-response","96","259552","0.0-4.0-1.0","6033","<p style=""font-size: 25px;"">Please press space to start the next program<br>>>>>>></p>"," ","","","","","",""
"","html-keyboard-response","97","261429","0.0-4.0-2.0","1875","<div><div style="" font-size:25px; color:green;""><a style=""white-space:pre-wrap;""> a = 16</a><a style=""""></a></div></div>","","null","","73","a = 16","",""
"","html-keyboard-response","98","264364","0.0-4.0-4.0-0.0-0.0","2427","<div><div style=""""><a style=""white-space:pre-wrap;""> for i in [1, 2]:
   a /= 2</a><a style=""""></a></div></div>","8","8","1","74","for i in [1, 2]:
   a /= 2","8","0"
"","html-keyboard-response","99","265249","0.0-4.0-4.0-1.0-0.0","380","<div><div style=""""><a style=""white-space:pre-wrap;""> for i in [1, 2]:
   a /= 2</a><a style=""""></a></div></div>","4","4","1","74","for i in [1, 2]:
   a /= 2","4","1"
"","html-keyboard-response","100","266115","0.0-4.0-4.0-2.0-0.0","362","<div><div style=""""><a style=""white-space:pre-wrap;""> for i in [1, 2]:
   a /= 2</a><a style=""""></a></div></div>","backspace","","1","","","backspace",""
"","html-keyboard-response","101","269321","0.0-4.0-5.0-0.0-0.0","2703","<div><div style=""""><a style=""white-space:pre-wrap;""> while a <= 11:
   a = round_up(a*1.5)</a><a style=""""></a></div></div>","7","6","0","75","while a <= 11:
   a = round_up(a*1.5)","6","0"
"","html-keyboard-response","103","277524","0.0-4.0-5.0-1.0-0.0","4175","<div><div style=""""><a style=""white-space:pre-wrap;""> while a <= 11:
   a = round_up(a*1.5)</a><a style=""""></a></div></div>","8","9","0","75","while a <= 11:
   a = round_up(a*1.5)","9","1"
"","html-keyboard-response","105","285155","0.0-4.0-5.0-2.0-0.0","3596","<div><div style=""""><a style=""white-space:pre-wrap;""> while a <= 11:
   a = round_up(a*1.5)</a><a style=""""></a></div></div>","14","14","1","75","while a <= 11:
   a = round_up(a*1.5)","14","2"
"","html-keyboard-response","106","286257","0.0-4.0-5.0-3.0-0.0","599","<div><div style=""""><a style=""white-space:pre-wrap;""> while a <= 11:
   a = round_up(a*1.5)</a><a style=""""></a></div></div>","backspace","","1","","","backspace",""
"","html-keyboard-response","107","290311","0.0-4.0-6.0-0.0-0.0","3532","<div><div style=""""><a style=""white-space:pre-wrap;""> while a >= 13:
   a += 5
   a -= 6</a><a style=""""></a></div></div>","19","19","1","76","while a >= 13:
   a += 5
   a -= 6","19","0"
"","html-keyboard-response","108","291591","0.0-4.0-6.0-1.0-0.0","764","<div><div style=""""><a style=""white-space:pre-wrap;""> while a >= 13:
   a += 5
   a -= 6</a><a style=""""></a></div></div>","13","13","1","76","while a >= 13:
   a += 5
   a -= 6","13","1"
"","html-keyboard-response","109","293720","0.0-4.0-6.0-2.0-0.0","1623","<div><div style=""""><a style=""white-space:pre-wrap;""> while a >= 13:
   a += 5
   a -= 6</a><a style=""""></a></div></div>","18","18","1","76","while a >= 13:
   a += 5
   a -= 6","18","2"
"","html-keyboard-response","110","294469","0.0-4.0-6.0-3.0-0.0","231","<div><div style=""""><a style=""white-space:pre-wrap;""> while a >= 13:
   a += 5
   a -= 6</a><a style=""""></a></div></div>","12","12","1","76","while a >= 13:
   a += 5
   a -= 6","12","3"
"","html-keyboard-response","111","295182","0.0-4.0-6.0-4.0-0.0","194","<div><div style=""""><a style=""white-space:pre-wrap;""> while a >= 13:
   a += 5
   a -= 6</a><a style=""""></a></div></div>","backspace","","1","","","backspace",""
"","html-keyboard-response","112","300573","0.0-4.0-7.0-0.0-0.0","4875","<div><div style=""""><a style=""white-space:pre-wrap;""> for i in [1, 2, 3]:
   a = average(a,4)</a><a style=""""></a></div></div>","8","8","1","77","for i in [1, 2, 3]:
   a = average(a,4)","8","0"
"","html-keyboard-response","113","303295","0.0-4.0-7.0-1.0-0.0","2218","<div><div style=""""><a style=""white-space:pre-wrap;""> for i in [1, 2, 3]:
   a = average(a,4)</a><a style=""""></a></div></div>","6","6","1","77","for i in [1, 2, 3]:
   a = average(a,4)","6","1"
"","html-keyboard-response","114","304855","0.0-4.0-7.0-2.0-0.0","1048","<div><div style=""""><a style=""white-space:pre-wrap;""> for i in [1, 2, 3]:
   a = average(a,4)</a><a style=""""></a></div></div>","4","5","0","77","for i in [1, 2, 3]:
   a = average(a,4)","5","2"
"","html-keyboard-response","116","309267","0.0-4.0-7.0-3.0-0.0","397","<div><div style=""""><a style=""white-space:pre-wrap;""> for i in [1, 2, 3]:
   a = average(a,4)</a><a style=""""></a></div></div>","backspace","","1","","","backspace",""
"","html-keyboard-response","117","311475","0.0-4.0-8.0-0.0-0.0","1697","<div><div style=""""><a style=""white-space:pre-wrap;""> for i in [1, 2]:
   a *= 3
   a -= 11</a><a style=""""></a></div></div>","15","15","1","78","for i in [1, 2]:
   a *= 3
   a -= 11","15","0"
"","html-keyboard-response","118","312503","0.0-4.0-8.0-1.0-0.0","524","<div><div style=""""><a style=""white-space:pre-wrap;""> for i in [1, 2]:
   a *= 3
   a -= 11</a><a style=""""></a></div></div>","4","4","1","78","for i in [1, 2]:
   a *= 3
   a -= 11","4","1"
"","html-keyboard-response","119","315727","0.0-4.0-8.0-2.0-0.0","2708","<div><div style=""""><a style=""white-space:pre-wrap;""> for i in [1, 2]:
   a *= 3
   a -= 11</a><a style=""""></a></div></div>","12","12","1","78","for i in [1, 2]:
   a *= 3
   a -= 11","12","2"
"","html-keyboard-response","120","318396","0.0-4.0-8.0-3.0-0.0","2157","<div><div style=""""><a style=""white-space:pre-wrap;""> for i in [1, 2]:
   a *= 3
   a -= 11</a><a style=""""></a></div></div>","1","1","1","78","for i in [1, 2]:
   a *= 3
   a -= 11","1","3"
"","html-keyboard-response","121","319253","0.0-4.0-8.0-4.0-0.0","345","<div><div style=""""><a style=""white-space:pre-wrap;""> for i in [1, 2]:
   a *= 3
   a -= 11</a><a style=""""></a></div></div>","backspace","","1","","","backspace",""
"","html-keyboard-response","122","321719","0.0-4.0-9.0-0.0-0.0","1961","<div><div style=""""><a style=""white-space:pre-wrap;""> for i in [1, 2]:
   a *= 6
   a /= 2</a><a style=""""></a></div></div>","6","6","1","79","for i in [1, 2]:
   a *= 6
   a /= 2","6","0"
"","html-keyboard-response","123","322910","0.0-4.0-9.0-1.0-0.0","672","<div><div style=""""><a style=""white-space:pre-wrap;""> for i in [1, 2]:
   a *= 6
   a /= 2</a><a style=""""></a></div></div>","3","3","1","79","for i in [1, 2]:
   a *= 6
   a /= 2","3","1"
"","html-keyboard-response","124","324872","0.0-4.0-9.0-2.0-0.0","1454","<div><div style=""""><a style=""white-space:pre-wrap;""> for i in [1, 2]:
   a *= 6
   a /= 2</a><a style=""""></a></div></div>","18","18","1","79","for i in [1, 2]:
   a *= 6
   a /= 2","18","2"
"","html-keyboard-response","125","326758","0.0-4.0-9.0-3.0-0.0","1380","<div><div style=""""><a style=""white-space:pre-wrap;""> for i in [1, 2]:
   a *= 6
   a /= 2</a><a style=""""></a></div></div>","9","9","1","79","for i in [1, 2]:
   a *= 6
   a /= 2","9","3"
"","html-keyboard-response","126","327628","0.0-4.0-9.0-4.0-0.0","349","<div><div style=""""><a style=""white-space:pre-wrap;""> for i in [1, 2]:
   a *= 6
   a /= 2</a><a style=""""></a></div></div>","backspace","","1","","","backspace",""
"","html-keyboard-response","127","331551","0.0-4.0-10.0-0.0-0.0","3403","<div><div style=""""><a style=""white-space:pre-wrap;""> while a >= 7:
   a -= 2</a><a style=""""></a></div></div>","7","7","1","80","while a >= 7:
   a -= 2","7","0"
"","html-keyboard-response","128","332348","0.0-4.0-10.0-1.0-0.0","295","<div><div style=""""><a style=""white-space:pre-wrap;""> while a >= 7:
   a -= 2</a><a style=""""></a></div></div>","5","5","1","80","while a >= 7:
   a -= 2","5","1"
"","html-keyboard-response","129","333007","0.0-4.0-10.0-2.0-0.0","151","<div><div style=""""><a style=""white-space:pre-wrap;""> while a >= 7:
   a -= 2</a><a style=""""></a></div></div>","backspace","","1","","","backspace",""
"","html-keyboard-response","130","336538","0.0-4.0-11.0-0.0-0.0","3019","<div><div style=""""><a style=""white-space:pre-wrap;""> while a <= 7:
   a += 9
   a /= 2</a><a style=""""></a></div></div>","14","14","1","81","while a <= 7:
   a += 9
   a /= 2","14","0"
"","html-keyboard-response","131","337950","0.0-4.0-11.0-1.0-0.0","901","<div><div style=""""><a style=""white-space:pre-wrap;""> while a <= 7:
   a += 9
   a /= 2</a><a style=""""></a></div></div>","7","7","1","81","while a <= 7:
   a += 9
   a /= 2","7","1"
"","html-keyboard-response","132","340922","0.0-4.0-11.0-2.0-0.0","2463","<div><div style=""""><a style=""white-space:pre-wrap;""> while a <= 7:
   a += 9
   a /= 2</a><a style=""""></a></div></div>","16","16","1","81","while a <= 7:
   a += 9
   a /= 2","16","2"
"","html-keyboard-response","133","344147","0.0-4.0-11.0-3.0-0.0","2709","<div><div style=""""><a style=""white-space:pre-wrap;""> while a <= 7:
   a += 9
   a /= 2</a><a style=""""></a></div></div>","8","8","1","81","while a <= 7:
   a += 9
   a /= 2","8","3"
"","html-keyboard-response","134","345140","0.0-4.0-11.0-4.0-0.0","481","<div><div style=""""><a style=""white-space:pre-wrap;""> while a <= 7:
   a += 9
   a /= 2</a><a style=""""></a></div></div>","backspace","","1","","","backspace",""
"","html-keyboard-response","135","387059","0.0-5.0-0.0-0.0","41405","<p style=""position:absolute; top:30%; font-size:25px; color:green;"" >Take a short break now</p>"," ","","","","","",""
"","html-keyboard-response","136","390292","0.0-5.0-1.0","3232","<p style=""font-size: 25px;"">Please press space to start the next program<br>>>>>>></p>"," ","","","","","",""
"","html-keyboard-response","137","392317","0.0-5.0-2.0","2024","<div><div style="" font-size:25px; color:green;""><a style=""white-space:pre-wrap;""> a = 7</a><a style=""""></a></div></div>","","null","","10","a = 7","",""
"","html-keyboard-response","138","395172","0.0-5.0-4.0-0.0-0.0","2345","<div><div style=""""><a style=""white-space:pre-wrap;""> while a <= 14:
   a *= 2
   a -= 4</a><a style=""""></a></div></div>","14","14","1","11","while a <= 14:
   a *= 2
   a -= 4","14","0"
"","html-keyboard-response","139","396251","0.0-5.0-4.0-1.0-0.0","574","<div><div style=""""><a style=""white-space:pre-wrap;""> while a <= 14:
   a *= 2
   a -= 4</a><a style=""""></a></div></div>","10","10","1","11","while a <= 14:
   a *= 2
   a -= 4","10","1"
"","html-keyboard-response","140","397943","0.0-5.0-4.0-2.0-0.0","1176","<div><div style=""""><a style=""white-space:pre-wrap;""> while a <= 14:
   a *= 2
   a -= 4</a><a style=""""></a></div></div>","20","20","1","11","while a <= 14:
   a *= 2
   a -= 4","20","2"
"","html-keyboard-response","141","398903","0.0-5.0-4.0-3.0-0.0","447","<div><div style=""""><a style=""white-space:pre-wrap;""> while a <= 14:
   a *= 2
   a -= 4</a><a style=""""></a></div></div>","16","16","1","11","while a <= 14:
   a *= 2
   a -= 4","16","3"
"","html-keyboard-response","142","399415","0.0-5.0-4.0-4.0-0.0","9","<div><div style=""""><a style=""white-space:pre-wrap;""> while a <= 14:
   a *= 2
   a -= 4</a><a style=""""></a></div></div>","backspace","","1","","","backspace",""
"","html-keyboard-response","143","404963","0.0-5.0-5.0-0.0-0.0","5045","<div><div style=""""><a style=""white-space:pre-wrap;""> for i in [1, 2, 3]:
   a /= 4
   a *= 2</a><a style=""""></a></div></div>","4","4","1","12","for i in [1, 2, 3]:
   a /= 4
   a *= 2","4","0"
"","html-keyboard-response","144","407084","0.0-5.0-5.0-1.0-0.0","1597","<div><div style=""""><a style=""white-space:pre-wrap;""> for i in [1, 2, 3]:
   a /= 4
   a *= 2</a><a style=""""></a></div></div>","1","8","0","12","for i in [1, 2, 3]:
   a /= 4
   a *= 2","8","1"
"","html-keyboard-response","146","414216","0.0-5.0-5.0-2.0-0.0","3119","<div><div style=""""><a style=""white-space:pre-wrap;""> for i in [1, 2, 3]:
   a /= 4
   a *= 2</a><a style=""""></a></div></div>","2","2","1","12","for i in [1, 2, 3]:
   a /= 4
   a *= 2","2","2"
"","html-keyboard-response","147","417157","0.0-5.0-5.0-3.0-0.0","2430","<div><div style=""""><a style=""white-space:pre-wrap;""> for i in [1, 2, 3]:
   a /= 4
   a *= 2</a><a style=""""></a></div></div>","4","4","1","12","for i in [1, 2, 3]:
   a /= 4
   a *= 2","4","3"
"","html-keyboard-response","148","418463","0.0-5.0-5.0-4.0-0.0","796","<div><div style=""""><a style=""white-space:pre-wrap;""> for i in [1, 2, 3]:
   a /= 4
   a *= 2</a><a style=""""></a></div></div>","backspace","1","0","12","for i in [1, 2, 3]:
   a /= 4
   a *= 2","1","4"
"","html-keyboard-response","150","422885","0.0-5.0-5.0-5.0-0.0","397","<div><div style=""""><a style=""white-space:pre-wrap;""> for i in [1, 2, 3]:
   a /= 4
   a *= 2</a><a style=""""></a></div></div>","2","2","1","12","for i in [1, 2, 3]:
   a /= 4
   a *= 2","2","5"
"","html-keyboard-response","151","423767","0.0-5.0-5.0-6.0-0.0","371","<div><div style=""""><a style=""white-space:pre-wrap;""> for i in [1, 2, 3]:
   a /= 4
   a *= 2</a><a style=""""></a></div></div>","backspace","","1","","","backspace",""
"","html-keyboard-response","152","429394","0.0-5.0-6.0-0.0-0.0","5106","<div><div style=""""><a style=""white-space:pre-wrap;""> for i in [1, 2]:
   a = round_up(a*2.5)</a><a style=""""></a></div></div>","8","5","0","13","for i in [1, 2]:
   a = round_up(a*2.5)","5","0"
"","html-keyboard-response","154","434887","0.0-5.0-6.0-1.0-0.0","1460","<div><div style=""""><a style=""white-space:pre-wrap;""> for i in [1, 2]:
   a = round_up(a*2.5)</a><a style=""""></a></div></div>","15","13","0","13","for i in [1, 2]:
   a = round_up(a*2.5)","13","1"
"","html-keyboard-response","156","439298","0.0-5.0-6.0-2.0-0.0","391","<div><div style=""""><a style=""white-space:pre-wrap;""> for i in [1, 2]:
   a = round_up(a*2.5)</a><a style=""""></a></div></div>","backspace","","1","","","backspace",""
"","html-keyboard-response","157","443700","0.0-5.0-7.0-0.0-0.0","3893","<div><div style=""""><a style=""white-space:pre-wrap;""> for i in [1, 2, 3]:
   a = average(a,5)</a><a style=""""></a></div></div>","9","9","1","14","for i in [1, 2, 3]:
   a = average(a,5)","9","0"
"","html-keyboard-response","158","447143","0.0-5.0-7.0-1.0-0.0","2920","<div><div style=""""><a style=""white-space:pre-wrap;""> for i in [1, 2, 3]:
   a = average(a,5)</a><a style=""""></a></div></div>","4","7","0","14","for i in [1, 2, 3]:
   a = average(a,5)","7","1"
"","html-keyboard-response","160","454927","0.0-5.0-7.0-2.0-0.0","3764","<div><div style=""""><a style=""white-space:pre-wrap;""> for i in [1, 2, 3]:
   a = average(a,5)</a><a style=""""></a></div></div>","4","6","0","14","for i in [1, 2, 3]:
   a = average(a,5)","6","2"
"","html-keyboard-response","162","459230","0.0-5.0-7.0-3.0-0.0","292","<div><div style=""""><a style=""white-space:pre-wrap;""> for i in [1, 2, 3]:
   a = average(a,5)</a><a style=""""></a></div></div>","backspace","","1","","","backspace",""
"","html-keyboard-response","163","461792","0.0-5.0-8.0-0.0-0.0","2058","<div><div style=""""><a style=""white-space:pre-wrap;""> for i in [1, 2]:
   a += 2
   a /= 2</a><a style=""""></a></div></div>","8","8","1","15","for i in [1, 2]:
   a += 2
   a /= 2","8","0"
"","html-keyboard-response","164","463480","0.0-5.0-8.0-1.0-0.0","1177","<div><div style=""""><a style=""white-space:pre-wrap;""> for i in [1, 2]:
   a += 2
   a /= 2</a><a style=""""></a></div></div>","4","4","1","15","for i in [1, 2]:
   a += 2
   a /= 2","4","1"
"","html-keyboard-response","165","464275","0.0-5.0-8.0-2.0-0.0","281","<div><div style=""""><a style=""white-space:pre-wrap;""> for i in [1, 2]:
   a += 2
   a /= 2</a><a style=""""></a></div></div>","6","6","1","15","for i in [1, 2]:
   a += 2
   a /= 2","6","2"
"","html-keyboard-response","166","466086","0.0-5.0-8.0-3.0-0.0","1298","<div><div style=""""><a style=""white-space:pre-wrap;""> for i in [1, 2]:
   a += 2
   a /= 2</a><a style=""""></a></div></div>","3","3","1","15","for i in [1, 2]:
   a += 2
   a /= 2","3","3"
"","html-keyboard-response","167","466677","0.0-5.0-8.0-4.0-0.0","84","<div><div style=""""><a style=""white-space:pre-wrap;""> for i in [1, 2]:
   a += 2
   a /= 2</a><a style=""""></a></div></div>","backspace","","1","","","backspace",""
"","html-keyboard-response","168","470049","0.0-5.0-9.0-0.0-0.0","2869","<div><div style=""""><a style=""white-space:pre-wrap;""> while a <= 9:
   a *= 2</a><a style=""""></a></div></div>","6","6","1","16","while a <= 9:
   a *= 2","6","0"
"","html-keyboard-response","169","471251","0.0-5.0-9.0-1.0-0.0","697","<div><div style=""""><a style=""white-space:pre-wrap;""> while a <= 9:
   a *= 2</a><a style=""""></a></div></div>","12","12","1","16","while a <= 9:
   a *= 2","12","1"
"","html-keyboard-response","170","471778","0.0-5.0-9.0-2.0-0.0","26","<div><div style=""""><a style=""white-space:pre-wrap;""> while a <= 9:
   a *= 2</a><a style=""""></a></div></div>","backspace","","1","","","backspace",""
"","html-keyboard-response","171","475011","0.0-5.0-10.0-0.0-0.0","2718","<div><div style=""""><a style=""white-space:pre-wrap;""> while a <= 14:
   a += 6
   a -= 4</a><a style=""""></a></div></div>","18","18","1","17","while a <= 14:
   a += 6
   a -= 4","18","0"
"","html-keyboard-response","172","476719","0.0-5.0-10.0-1.0-0.0","1206","<div><div style=""""><a style=""white-space:pre-wrap;""> while a <= 14:
   a += 6
   a -= 4</a><a style=""""></a></div></div>","14","14","1","17","while a <= 14:
   a += 6
   a -= 4","14","1"
"","html-keyboard-response","173","480763","0.0-5.0-10.0-2.0-0.0","3540","<div><div style=""""><a style=""white-space:pre-wrap;""> while a <= 14:
   a += 6
   a -= 4</a><a style=""""></a></div></div>","20","20","1","17","while a <= 14:
   a += 6
   a -= 4","20","2"
"","html-keyboard-response","174","481731","0.0-5.0-10.0-3.0-0.0","447","<div><div style=""""><a style=""white-space:pre-wrap;""> while a <= 14:
   a += 6
   a -= 4</a><a style=""""></a></div></div>","16","16","1","17","while a <= 14:
   a += 6
   a -= 4","16","3"
"","html-keyboard-response","175","482604","0.0-5.0-10.0-4.0-0.0","352","<div><div style=""""><a style=""white-space:pre-wrap;""> while a <= 14:
   a += 6
   a -= 4</a><a style=""""></a></div></div>","backspace","","1","","","backspace",""
"","html-keyboard-response","176","486823","0.0-5.0-11.0-0.0-0.0","3710","<div><div style=""""><a style=""white-space:pre-wrap;""> for i in [1, 2, 3, 4]:
   a -= 3</a><a style=""""></a></div></div>","13","13","1","18","for i in [1, 2, 3, 4]:
   a -= 3","13","0"
"","html-keyboard-response","177","488626","0.0-5.0-11.0-1.0-0.0","1293","<div><div style=""""><a style=""white-space:pre-wrap;""> for i in [1, 2, 3, 4]:
   a -= 3</a><a style=""""></a></div></div>","10","10","1","18","for i in [1, 2, 3, 4]:
   a -= 3","10","1"
"","html-keyboard-response","178","489910","0.0-5.0-11.0-2.0-0.0","777","<div><div style=""""><a style=""white-space:pre-wrap;""> for i in [1, 2, 3, 4]:
   a -= 3</a><a style=""""></a></div></div>","7","7","1","18","for i in [1, 2, 3, 4]:
   a -= 3","7","2"
"","html-keyboard-response","179","491630","0.0-5.0-11.0-3.0-0.0","1216","<div><div style=""""><a style=""white-space:pre-wrap;""> for i in [1, 2, 3, 4]:
   a -= 3</a><a style=""""></a></div></div>","4","4","1","18","for i in [1, 2, 3, 4]:
   a -= 3","4","3"
"","html-keyboard-response","180","492405","0.0-5.0-11.0-4.0-0.0","271","<div><div style=""""><a style=""white-space:pre-wrap;""> for i in [1, 2, 3, 4]:
   a -= 3</a><a style=""""></a></div></div>","backspace","","1","","","backspace",""
"","html-keyboard-response","181","494733","0.0-6.0-1.0","1819","<p style=""font-size: 25px;"">Please press space to start the next program<br>>>>>>></p>"," ","","","","","",""
"","html-keyboard-response","182","497261","0.0-6.0-2.0","2527","<div><div style="" font-size:25px; color:green;""><a style=""white-space:pre-wrap;""> a = 9</a><a style=""""></a></div></div>","","null","","91","a = 9","",""
"","html-keyboard-response","183","500803","0.0-6.0-4.0-0.0-0.0","3040","<div><div style=""""><a style=""white-space:pre-wrap;""> while a >= 2:
   a /= 3</a><a style=""""></a></div></div>","3","3","1","92","while a >= 2:
   a /= 3","3","0"
"","html-keyboard-response","184","501345","0.0-6.0-4.0-1.0-0.0","31","<div><div style=""""><a style=""white-space:pre-wrap;""> while a >= 2:
   a /= 3</a><a style=""""></a></div></div>","1","1","1","92","while a >= 2:
   a /= 3","1","1"
"","html-keyboard-response","185","501880","0.0-6.0-4.0-2.0-0.0","27","<div><div style=""""><a style=""white-space:pre-wrap;""> while a >= 2:
   a /= 3</a><a style=""""></a></div></div>","backspace","","1","","","backspace",""
"","html-keyboard-response","186","504659","0.0-6.0-5.0-0.0-0.0","2265","<div><div style=""""><a style=""white-space:pre-wrap;""> for i in [1, 2, 3]:
   a += 6</a><a style=""""></a></div></div>","7","7","1","93","for i in [1, 2, 3]:
   a += 6","7","0"
"","html-keyboard-response","187","506200","0.0-6.0-5.0-1.0-0.0","1037","<div><div style=""""><a style=""white-space:pre-wrap;""> for i in [1, 2, 3]:
   a += 6</a><a style=""""></a></div></div>","13","13","1","93","for i in [1, 2, 3]:
   a += 6","13","1"
"","html-keyboard-response","188","508422","0.0-6.0-5.0-2.0-0.0","1710","<div><div style=""""><a style=""white-space:pre-wrap;""> for i in [1, 2, 3]:
   a += 6</a><a style=""""></a></div></div>","19","19","1","93","for i in [1, 2, 3]:
   a += 6","19","2"
"","html-keyboard-response","189","509340","0.0-6.0-5.0-3.0-0.0","409","<div><div style=""""><a style=""white-space:pre-wrap;""> for i in [1, 2, 3]:
   a += 6</a><a style=""""></a></div></div>","backspace","","1","","","backspace",""
"","html-keyboard-response","190","511146","0.0-6.0-6.0-0.0-0.0","1285","<div><div style=""""><a style=""white-space:pre-wrap;""> for i in [1, 2]:
   a += 1
   a -= 8</a><a style=""""></a></div></div>","20","20","1","94","for i in [1, 2]:
   a += 1
   a -= 8","20","0"
"","html-keyboard-response","191","512465","0.0-6.0-6.0-1.0-0.0","813","<div><div style=""""><a style=""white-space:pre-wrap;""> for i in [1, 2]:
   a += 1
   a -= 8</a><a style=""""></a></div></div>","12","12","1","94","for i in [1, 2]:
   a += 1
   a -= 8","12","1"
"","html-keyboard-response","192","514280","0.0-6.0-6.0-2.0-0.0","1308","<div><div style=""""><a style=""white-space:pre-wrap;""> for i in [1, 2]:
   a += 1
   a -= 8</a><a style=""""></a></div></div>","13","13","1","94","for i in [1, 2]:
   a += 1
   a -= 8","13","2"
"","html-keyboard-response","193","517114","0.0-6.0-6.0-3.0-0.0","2321","<div><div style=""""><a style=""white-space:pre-wrap;""> for i in [1, 2]:
   a += 1
   a -= 8</a><a style=""""></a></div></div>","8","5","0","94","for i in [1, 2]:
   a += 1
   a -= 8","5","3"
"","html-keyboard-response","195","521416","0.0-6.0-6.0-4.0-0.0","284","<div><div style=""""><a style=""white-space:pre-wrap;""> for i in [1, 2]:
   a += 1
   a -= 8</a><a style=""""></a></div></div>","backspace","","1","","","backspace",""
"","html-keyboard-response","196","523775","0.0-6.0-7.0-0.0-0.0","1843","<div><div style=""""><a style=""white-space:pre-wrap;""> while a <= 6:
   a *= 3
   a -= 9</a><a style=""""></a></div></div>","15","15","1","95","while a <= 6:
   a *= 3
   a -= 9","15","0"
"","html-keyboard-response","197","525457","0.0-6.0-7.0-1.0-0.0","1165","<div><div style=""""><a style=""white-space:pre-wrap;""> while a <= 6:
   a *= 3
   a -= 9</a><a style=""""></a></div></div>","6","6","1","95","while a <= 6:
   a *= 3
   a -= 9","6","1"
"","html-keyboard-response","198","527261","0.0-6.0-7.0-2.0-0.0","1290","<div><div style=""""><a style=""white-space:pre-wrap;""> while a <= 6:
   a *= 3
   a -= 9</a><a style=""""></a></div></div>","18","18","1","95","while a <= 6:
   a *= 3
   a -= 9","18","2"
"","html-keyboard-response","199","528525","0.0-6.0-7.0-3.0-0.0","754","<div><div style=""""><a style=""white-space:pre-wrap;""> while a <= 6:
   a *= 3
   a -= 9</a><a style=""""></a></div></div>","9","9","1","95","while a <= 6:
   a *= 3
   a -= 9","9","3"
"","html-keyboard-response","200","530166","0.0-6.0-7.0-4.0-0.0","1124","<div><div style=""""><a style=""white-space:pre-wrap;""> while a <= 6:
   a *= 3
   a -= 9</a><a style=""""></a></div></div>","backspace","","1","","","backspace",""
"","html-keyboard-response","201","535005","0.0-6.0-8.0-0.0-0.0","4333","<div><div style=""""><a style=""white-space:pre-wrap;""> while a >= 3:
   a = average(a, 1)</a><a style=""""></a></div></div>","5","5","1","96","while a >= 3:
   a = average(a, 1)","5","0"
"","html-keyboard-response","202","537172","0.0-6.0-8.0-1.0-0.0","1661","<div><div style=""""><a style=""white-space:pre-wrap;""> while a >= 3:
   a = average(a, 1)</a><a style=""""></a></div></div>","3","3","1","96","while a >= 3:
   a = average(a, 1)","3","1"
"","html-keyboard-response","203","539145","0.0-6.0-8.0-2.0-0.0","1454","<div><div style=""""><a style=""white-space:pre-wrap;""> while a >= 3:
   a = average(a, 1)</a><a style=""""></a></div></div>","2","2","1","96","while a >= 3:
   a = average(a, 1)","2","2"
"","html-keyboard-response","204","540092","0.0-6.0-8.0-3.0-0.0","440","<div><div style=""""><a style=""white-space:pre-wrap;""> while a >= 3:
   a = average(a, 1)</a><a style=""""></a></div></div>","backspace","","1","","","backspace",""
"","html-keyboard-response","205","541769","0.0-6.0-9.0-0.0-0.0","1168","<div><div style=""""><a style=""white-space:pre-wrap;""> while a <= 9:
   a -= 1
   a *= 5</a><a style=""""></a></div></div>","1","1","1","97","while a <= 9:
   a -= 1
   a *= 5","1","0"
"","html-keyboard-response","206","543125","0.0-6.0-9.0-1.0-0.0","854","<div><div style=""""><a style=""white-space:pre-wrap;""> while a <= 9:
   a -= 1
   a *= 5</a><a style=""""></a></div></div>","5","5","1","97","while a <= 9:
   a -= 1
   a *= 5","5","1"
"","html-keyboard-response","207","544468","0.0-6.0-9.0-2.0-0.0","837","<div><div style=""""><a style=""white-space:pre-wrap;""> while a <= 9:
   a -= 1
   a *= 5</a><a style=""""></a></div></div>","4","4","1","97","while a <= 9:
   a -= 1
   a *= 5","4","2"
"","html-keyboard-response","208","547821","0.0-6.0-9.0-3.0-0.0","2850","<div><div style=""""><a style=""white-space:pre-wrap;""> while a <= 9:
   a -= 1
   a *= 5</a><a style=""""></a></div></div>","20","20","1","97","while a <= 9:
   a -= 1
   a *= 5","20","3"
"","html-keyboard-response","209","548926","0.0-6.0-9.0-4.0-0.0","585","<div><div style=""""><a style=""white-space:pre-wrap;""> while a <= 9:
   a -= 1
   a *= 5</a><a style=""""></a></div></div>","backspace","","1","","","backspace",""
"","html-keyboard-response","210","551455","0.0-6.0-10.0-0.0-0.0","2004","<div><div style=""""><a style=""white-space:pre-wrap;""> for i in [1, 2, 3]:
   a -= 3</a><a style=""""></a></div></div>","17","17","1","98","for i in [1, 2, 3]:
   a -= 3","17","0"
"","html-keyboard-response","211","553265","0.0-6.0-10.0-1.0-0.0","1294","<div><div style=""""><a style=""white-space:pre-wrap;""> for i in [1, 2, 3]:
   a -= 3</a><a style=""""></a></div></div>","14","14","1","98","for i in [1, 2, 3]:
   a -= 3","14","1"
"","html-keyboard-response","212","554894","0.0-6.0-10.0-2.0-0.0","1122","<div><div style=""""><a style=""white-space:pre-wrap;""> for i in [1, 2, 3]:
   a -= 3</a><a style=""""></a></div></div>","11","11","1","98","for i in [1, 2, 3]:
   a -= 3","11","2"
"","html-keyboard-response","213","555875","0.0-6.0-10.0-3.0-0.0","473","<div><div style=""""><a style=""white-space:pre-wrap;""> for i in [1, 2, 3]:
   a -= 3</a><a style=""""></a></div></div>","backspace","","1","","","backspace",""
"","html-keyboard-response","214","558642","0.0-6.0-11.0-0.0-0.0","2250","<div><div style=""""><a style=""white-space:pre-wrap;""> for i in [1, 2]:
   a -= 5</a><a style=""""></a></div></div>","6","6","1","99","for i in [1, 2]:
   a -= 5","6","0"
"","html-keyboard-response","215","559890","0.0-6.0-11.0-1.0-0.0","739","<div><div style=""""><a style=""white-space:pre-wrap;""> for i in [1, 2]:
   a -= 5</a><a style=""""></a></div></div>","1","1","1","99","for i in [1, 2]:
   a -= 5","1","1"
"","html-keyboard-response","216","560568","0.0-6.0-11.0-2.0-0.0","156","<div><div style=""""><a style=""white-space:pre-wrap;""> for i in [1, 2]:
   a -= 5</a><a style=""""></a></div></div>","backspace","","1","","","backspace",""
"","html-keyboard-response","217","567374","0.0-7.0-1.0","6302","<p style=""font-size: 25px;"">Please press space to start the next program<br>>>>>>></p>"," ","","","","","",""
"","html-keyboard-response","218","572328","0.0-7.0-2.0","4951","<div><div style="" font-size:25px; color:green;""><a style=""white-space:pre-wrap;""> a = 16</a><a style=""""></a></div></div>","","null","","82","a = 16","",""
"","html-keyboard-response","219","574895","0.0-7.0-4.0-0.0-0.0","2053","<div><div style=""""><a style=""white-space:pre-wrap;""> while a >= 6:
   a /= 2</a><a style=""""></a></div></div>","8","8","1","83","while a >= 6:
   a /= 2","8","0"
"","html-keyboard-response","220","577054","0.0-7.0-4.0-1.0-0.0","1653","<div><div style=""""><a style=""white-space:pre-wrap;""> while a >= 6:
   a /= 2</a><a style=""""></a></div></div>","4","4","1","83","while a >= 6:
   a /= 2","4","1"
"","html-keyboard-response","221","578473","0.0-7.0-4.0-2.0-0.0","916","<div><div style=""""><a style=""white-space:pre-wrap;""> while a >= 6:
   a /= 2</a><a style=""""></a></div></div>","backspace","","1","","","backspace",""
"","html-keyboard-response","222","584036","0.0-7.0-5.0-0.0-0.0","5054","<div><div style=""""><a style=""white-space:pre-wrap;""> while a <= 11:
   a = round_up(a*1.5)</a><a style=""""></a></div></div>","7","6","0","84","while a <= 11:
   a = round_up(a*1.5)","6","0"
"","html-keyboard-response","224","589144","0.0-7.0-5.0-1.0-0.0","1092","<div><div style=""""><a style=""white-space:pre-wrap;""> while a <= 11:
   a = round_up(a*1.5)</a><a style=""""></a></div></div>","9","9","1","84","while a <= 11:
   a = round_up(a*1.5)","9","1"
"","html-keyboard-response","225","593458","0.0-7.0-5.0-2.0-0.0","3797","<div><div style=""""><a style=""white-space:pre-wrap;""> while a <= 11:
   a = round_up(a*1.5)</a><a style=""""></a></div></div>","backspace","14","0","84","while a <= 11:
   a = round_up(a*1.5)","14","2"
"","html-keyboard-response","227","597880","0.0-7.0-5.0-3.0-0.0","407","<div><div style=""""><a style=""white-space:pre-wrap;""> while a <= 11:
   a = round_up(a*1.5)</a><a style=""""></a></div></div>","backspace","","1","","","backspace",""
"","html-keyboard-response","228","600784","0.0-7.0-6.0-0.0-0.0","2382","<div><div style=""""><a style=""white-space:pre-wrap;""> for i in [1, 2]:
   a += 5
   a -= 6</a><a style=""""></a></div></div>","19","19","1","85","for i in [1, 2]:
   a += 5
   a -= 6","19","0"
"","html-keyboard-response","229","603699","0.0-7.0-6.0-1.0-0.0","2408","<div><div style=""""><a style=""white-space:pre-wrap;""> for i in [1, 2]:
   a += 5
   a -= 6</a><a style=""""></a></div></div>","15","13","0","85","for i in [1, 2]:
   a += 5
   a -= 6","13","1"
"","html-keyboard-response","231","609239","0.0-7.0-6.0-2.0-0.0","1507","<div><div style=""""><a style=""white-space:pre-wrap;""> for i in [1, 2]:
   a += 5
   a -= 6</a><a style=""""></a></div></div>","18","18","1","85","for i in [1, 2]:
   a += 5
   a -= 6","18","2"
"","html-keyboard-response","232","609817","0.0-7.0-6.0-3.0-0.0","76","<div><div style=""""><a style=""white-space:pre-wrap;""> for i in [1, 2]:
   a += 5
   a -= 6</a><a style=""""></a></div></div>","12","12","1","85","for i in [1, 2]:
   a += 5
   a -= 6","12","3"
"","html-keyboard-response","233","610471","0.0-7.0-6.0-4.0-0.0","150","<div><div style=""""><a style=""white-space:pre-wrap;""> for i in [1, 2]:
   a += 5
   a -= 6</a><a style=""""></a></div></div>","backspace","","1","","","backspace",""
"","html-keyboard-response","234","615847","0.0-7.0-7.0-0.0-0.0","4855","<div><div style=""""><a style=""white-space:pre-wrap;""> for i in [1, 2, 3]:
   a = average(a,4)</a><a style=""""></a></div></div>","8","8","1","86","for i in [1, 2, 3]:
   a = average(a,4)","8","0"
"","html-keyboard-response","235","618393","0.0-7.0-7.0-1.0-0.0","2042","<div><div style=""""><a style=""white-space:pre-wrap;""> for i in [1, 2, 3]:
   a = average(a,4)</a><a style=""""></a></div></div>","6","6","1","86","for i in [1, 2, 3]:
   a = average(a,4)","6","1"
"","html-keyboard-response","236","620290","0.0-7.0-7.0-2.0-0.0","1388","<div><div style=""""><a style=""white-space:pre-wrap;""> for i in [1, 2, 3]:
   a = average(a,4)</a><a style=""""></a></div></div>","5","5","1","86","for i in [1, 2, 3]:
   a = average(a,4)","5","2"
"","html-keyboard-response","237","621477","0.0-7.0-7.0-3.0-0.0","676","<div><div style=""""><a style=""white-space:pre-wrap;""> for i in [1, 2, 3]:
   a = average(a,4)</a><a style=""""></a></div></div>","backspace","","1","","","backspace",""
"","html-keyboard-response","238","623648","0.0-7.0-8.0-0.0-0.0","1666","<div><div style=""""><a style=""white-space:pre-wrap;""> while a >= 3:
   a *= 3
   a -= 11</a><a style=""""></a></div></div>","15","15","1","87","while a >= 3:
   a *= 3
   a -= 11","15","0"
"","html-keyboard-response","239","625373","0.0-7.0-8.0-1.0-0.0","1212","<div><div style=""""><a style=""white-space:pre-wrap;""> while a >= 3:
   a *= 3
   a -= 11</a><a style=""""></a></div></div>","4","4","1","87","while a >= 3:
   a *= 3
   a -= 11","4","1"
"","html-keyboard-response","240","630063","0.0-7.0-8.0-2.0-0.0","4182","<div><div style=""""><a style=""white-space:pre-wrap;""> while a >= 3:
   a *= 3
   a -= 11</a><a style=""""></a></div></div>","12","12","1","87","while a >= 3:
   a *= 3
   a -= 11","12","2"
"","html-keyboard-response","241","631498","0.0-7.0-8.0-3.0-0.0","917","<div><div style=""""><a style=""white-space:pre-wrap;""> while a >= 3:
   a *= 3
   a -= 11</a><a style=""""></a></div></div>","1","1","1","87","while a >= 3:
   a *= 3
   a -= 11","1","3"
"","html-keyboard-response","242","632293","0.0-7.0-8.0-4.0-0.0","292","<div><div style=""""><a style=""white-space:pre-wrap;""> while a >= 3:
   a *= 3
   a -= 11</a><a style=""""></a></div></div>","backspace","","1","","","backspace",""
"","html-keyboard-response","243","634789","0.0-7.0-9.0-0.0-0.0","1988","<div><div style=""""><a style=""white-space:pre-wrap;""> for i in [1, 2]:
   a *= 6
   a /= 2</a><a style=""""></a></div></div>","6","6","1","88","for i in [1, 2]:
   a *= 6
   a /= 2","6","0"
"","html-keyboard-response","244","635845","0.0-7.0-9.0-1.0-0.0","545","<div><div style=""""><a style=""white-space:pre-wrap;""> for i in [1, 2]:
   a *= 6
   a /= 2</a><a style=""""></a></div></div>","3","3","1","88","for i in [1, 2]:
   a *= 6
   a /= 2","3","1"
"","html-keyboard-response","245","638890","0.0-7.0-9.0-2.0-0.0","2535","<div><div style=""""><a style=""white-space:pre-wrap;""> for i in [1, 2]:
   a *= 6
   a /= 2</a><a style=""""></a></div></div>","18","18","1","88","for i in [1, 2]:
   a *= 6
   a /= 2","18","2"
"","html-keyboard-response","246","640269","0.0-7.0-9.0-3.0-0.0","872","<div><div style=""""><a style=""white-space:pre-wrap;""> for i in [1, 2]:
   a *= 6
   a /= 2</a><a style=""""></a></div></div>","9","9","1","88","for i in [1, 2]:
   a *= 6
   a /= 2","9","3"
"","html-keyboard-response","247","641135","0.0-7.0-9.0-4.0-0.0","345","<div><div style=""""><a style=""white-space:pre-wrap;""> for i in [1, 2]:
   a *= 6
   a /= 2</a><a style=""""></a></div></div>","backspace","","1","","","backspace",""
"","html-keyboard-response","248","644299","0.0-7.0-10.0-0.0-0.0","2658","<div><div style=""""><a style=""white-space:pre-wrap;""> for i in [1, 2]:
   a -= 2</a><a style=""""></a></div></div>","7","7","1","89","for i in [1, 2]:
   a -= 2","7","0"
"","html-keyboard-response","249","645786","0.0-7.0-10.0-1.0-0.0","965","<div><div style=""""><a style=""white-space:pre-wrap;""> for i in [1, 2]:
   a -= 2</a><a style=""""></a></div></div>","5","5","1","89","for i in [1, 2]:
   a -= 2","5","1"
"","html-keyboard-response","250","646572","0.0-7.0-10.0-2.0-0.0","271","<div><div style=""""><a style=""white-space:pre-wrap;""> for i in [1, 2]:
   a -= 2</a><a style=""""></a></div></div>","backspace","","1","","","backspace",""
"","html-keyboard-response","251","651102","0.0-7.0-11.0-0.0-0.0","4021","<div><div style=""""><a style=""white-space:pre-wrap;""> while a <= 7:
   a += 9
   a /= 2</a><a style=""""></a></div></div>","14","14","1","90","while a <= 7:
   a += 9
   a /= 2","14","0"
"","html-keyboard-response","252","652928","0.0-7.0-11.0-1.0-0.0","1312","<div><div style=""""><a style=""white-space:pre-wrap;""> while a <= 7:
   a += 9
   a /= 2</a><a style=""""></a></div></div>","7","7","1","90","while a <= 7:
   a += 9
   a /= 2","7","1"
"","html-keyboard-response","253","655459","0.0-7.0-11.0-2.0-0.0","2018","<div><div style=""""><a style=""white-space:pre-wrap;""> while a <= 7:
   a += 9
   a /= 2</a><a style=""""></a></div></div>","16","16","1","90","while a <= 7:
   a += 9
   a /= 2","16","2"
"","html-keyboard-response","254","656843","0.0-7.0-11.0-3.0-0.0","862","<div><div style=""""><a style=""white-space:pre-wrap;""> while a <= 7:
   a += 9
   a /= 2</a><a style=""""></a></div></div>","7","8","0","90","while a <= 7:
   a += 9
   a /= 2","8","3"
"","html-keyboard-response","256","661235","0.0-7.0-11.0-4.0-0.0","373","<div><div style=""""><a style=""white-space:pre-wrap;""> while a <= 7:
   a += 9
   a /= 2</a><a style=""""></a></div></div>","backspace","","1","","","backspace",""
"","html-keyboard-response","257","738372","0.0-8.0-0.0-0.0","76633","<p style=""position:absolute; top:30%; font-size:25px; color:green;"" >Take a short break now</p>","enter","","","","","",""
"","html-keyboard-response","258","742035","0.0-8.0-1.0","3662","<p style=""font-size: 25px;"">Please press space to start the next program<br>>>>>>></p>"," ","","","","","",""
"","html-keyboard-response","259","742855","0.0-8.0-2.0","819","<div><div style="" font-size:25px; color:green;""><a style=""white-space:pre-wrap;""> a = 18</a><a style=""""></a></div></div>","","null","","19","a = 18","",""
"","html-keyboard-response","260","747263","0.0-8.0-4.0-0.0-0.0","3906","<div><div style=""""><a style=""white-space:pre-wrap;""> while a >= 10:
   a /= 3
   a *= 2</a><a style=""""></a></div></div>","6","6","1","20","while a >= 10:
   a /= 3
   a *= 2","6","0"
"","html-keyboard-response","261","749003","0.0-8.0-4.0-1.0-0.0","1236","<div><div style=""""><a style=""white-space:pre-wrap;""> while a >= 10:
   a /= 3
   a *= 2</a><a style=""""></a></div></div>","12","12","1","20","while a >= 10:
   a /= 3
   a *= 2","12","1"
"","html-keyboard-response","262","751059","0.0-8.0-4.0-2.0-0.0","1541","<div><div style=""""><a style=""white-space:pre-wrap;""> while a >= 10:
   a /= 3
   a *= 2</a><a style=""""></a></div></div>","4","4","1","20","while a >= 10:
   a /= 3
   a *= 2","4","2"
"","html-keyboard-response","263","752511","0.0-8.0-4.0-3.0-0.0","945","<div><div style=""""><a style=""white-space:pre-wrap;""> while a >= 10:
   a /= 3
   a *= 2</a><a style=""""></a></div></div>","8","8","1","20","while a >= 10:
   a /= 3
   a *= 2","8","3"
"","html-keyboard-response","264","755374","0.0-8.0-4.0-4.0-0.0","2356","<div><div style=""""><a style=""white-space:pre-wrap;""> while a >= 10:
   a /= 3
   a *= 2</a><a style=""""></a></div></div>","backspace","","1","","","backspace",""
"","html-keyboard-response","265","758005","0.0-8.0-5.0-0.0-0.0","2127","<div><div style=""""><a style=""white-space:pre-wrap;""> while a >= 2:
   a /= 2</a><a style=""""></a></div></div>","4","4","1","21","while a >= 2:
   a /= 2","4","0"
"","html-keyboard-response","266","759075","0.0-8.0-5.0-1.0-0.0","558","<div><div style=""""><a style=""white-space:pre-wrap;""> while a >= 2:
   a /= 2</a><a style=""""></a></div></div>","2","2","1","21","while a >= 2:
   a /= 2","2","1"
"","html-keyboard-response","267","759685","0.0-8.0-5.0-2.0-0.0","98","<div><div style=""""><a style=""white-space:pre-wrap;""> while a >= 2:
   a /= 2</a><a style=""""></a></div></div>","1","1","1","21","while a >= 2:
   a /= 2","1","2"
"","html-keyboard-response","268","760478","0.0-8.0-5.0-3.0-0.0","290","<div><div style=""""><a style=""white-space:pre-wrap;""> while a >= 2:
   a /= 2</a><a style=""""></a></div></div>","backspace","","1","","","backspace",""
"","html-keyboard-response","269","762672","0.0-8.0-6.0-0.0-0.0","1684","<div><div style=""""><a style=""white-space:pre-wrap;""> for i in [1, 2, 3, 4]:
   a += 2</a><a style=""""></a></div></div>","3","3","1","22","for i in [1, 2, 3, 4]:
   a += 2","3","0"
"","html-keyboard-response","270","764026","0.0-8.0-6.0-1.0-0.0","849","<div><div style=""""><a style=""white-space:pre-wrap;""> for i in [1, 2, 3, 4]:
   a += 2</a><a style=""""></a></div></div>","5","5","1","22","for i in [1, 2, 3, 4]:
   a += 2","5","1"
"","html-keyboard-response","271","765126","0.0-8.0-6.0-2.0-0.0","584","<div><div style=""""><a style=""white-space:pre-wrap;""> for i in [1, 2, 3, 4]:
   a += 2</a><a style=""""></a></div></div>","7","7","1","22","for i in [1, 2, 3, 4]:
   a += 2","7","2"
"","html-keyboard-response","272","766522","0.0-8.0-6.0-3.0-0.0","885","<div><div style=""""><a style=""white-space:pre-wrap;""> for i in [1, 2, 3, 4]:
   a += 2</a><a style=""""></a></div></div>","9","9","1","22","for i in [1, 2, 3, 4]:
   a += 2","9","3"
"","html-keyboard-response","273","767373","0.0-8.0-6.0-4.0-0.0","336","<div><div style=""""><a style=""white-space:pre-wrap;""> for i in [1, 2, 3, 4]:
   a += 2</a><a style=""""></a></div></div>","backspace","","1","","","backspace",""
"","html-keyboard-response","274","769491","0.0-8.0-7.0-0.0-0.0","1614","<div><div style=""""><a style=""white-space:pre-wrap;""> while a >= 6:
   a += 9
   a /= 3</a><a style=""""></a></div></div>","18","18","1","23","while a >= 6:
   a += 9
   a /= 3","18","0"
"","html-keyboard-response","275","771762","0.0-8.0-7.0-1.0-0.0","1765","<div><div style=""""><a style=""white-space:pre-wrap;""> while a >= 6:
   a += 9
   a /= 3</a><a style=""""></a></div></div>","6","6","1","23","while a >= 6:
   a += 9
   a /= 3","6","1"
"","html-keyboard-response","276","773476","0.0-8.0-7.0-2.0-0.0","1198","<div><div style=""""><a style=""white-space:pre-wrap;""> while a >= 6:
   a += 9
   a /= 3</a><a style=""""></a></div></div>","15","15","1","23","while a >= 6:
   a += 9
   a /= 3","15","2"
"","html-keyboard-response","277","775025","0.0-8.0-7.0-3.0-0.0","1028","<div><div style=""""><a style=""white-space:pre-wrap;""> while a >= 6:
   a += 9
   a /= 3</a><a style=""""></a></div></div>","5","5","1","23","while a >= 6:
   a += 9
   a /= 3","5","3"
"","html-keyboard-response","278","776271","0.0-8.0-7.0-4.0-0.0","744","<div><div style=""""><a style=""white-space:pre-wrap;""> while a >= 6:
   a += 9
   a /= 3</a><a style=""""></a></div></div>","backspace","","1","","","backspace",""
"","html-keyboard-response","279","782456","0.0-8.0-8.0-0.0-0.0","5678","<div><div style=""""><a style=""white-space:pre-wrap;""> for i in [1, 2, 3]:
   a = round_down(a*1.5)</a><a style=""""></a></div></div>","8","7","0","24","for i in [1, 2, 3]:
   a = round_down(a*1.5)","7","0"
"","html-keyboard-response","281","786921","0.0-8.0-8.0-1.0-0.0","442","<div><div style=""""><a style=""white-space:pre-wrap;""> for i in [1, 2, 3]:
   a = round_down(a*1.5)</a><a style=""""></a></div></div>","11","10","0","24","for i in [1, 2, 3]:
   a = round_down(a*1.5)","10","1"
"","html-keyboard-response","283","792278","0.0-8.0-8.0-2.0-0.0","1339","<div><div style=""""><a style=""white-space:pre-wrap;""> for i in [1, 2, 3]:
   a = round_down(a*1.5)</a><a style=""""></a></div></div>","15","15","1","24","for i in [1, 2, 3]:
   a = round_down(a*1.5)","15","2"
"","html-keyboard-response","284","793019","0.0-8.0-8.0-3.0-0.0","222","<div><div style=""""><a style=""white-space:pre-wrap;""> for i in [1, 2, 3]:
   a = round_down(a*1.5)</a><a style=""""></a></div></div>","backspace","","1","","","backspace",""
"","html-keyboard-response","285","796174","0.0-8.0-9.0-0.0-0.0","2638","<div><div style=""""><a style=""white-space:pre-wrap;""> for i in [1, 2]:
   a = average(a,3)</a><a style=""""></a></div></div>","9","9","1","25","for i in [1, 2]:
   a = average(a,3)","9","0"
"","html-keyboard-response","286","800093","0.0-8.0-9.0-1.0-0.0","3414","<div><div style=""""><a style=""white-space:pre-wrap;""> for i in [1, 2]:
   a = average(a,3)</a><a style=""""></a></div></div>","6","6","1","25","for i in [1, 2]:
   a = average(a,3)","6","1"
"","html-keyboard-response","287","800807","0.0-8.0-9.0-2.0-0.0","209","<div><div style=""""><a style=""white-space:pre-wrap;""> for i in [1, 2]:
   a = average(a,3)</a><a style=""""></a></div></div>","backspace","","1","","","backspace",""
"","html-keyboard-response","288","803731","0.0-8.0-10.0-0.0-0.0","2422","<div><div style=""""><a style=""white-space:pre-wrap;""> while a <= 11:
   a *= 2
   a -= 5</a><a style=""""></a></div></div>","12","12","1","26","while a <= 11:
   a *= 2
   a -= 5","12","0"
"","html-keyboard-response","289","804856","0.0-8.0-10.0-1.0-0.0","617","<div><div style=""""><a style=""white-space:pre-wrap;""> while a <= 11:
   a *= 2
   a -= 5</a><a style=""""></a></div></div>","7","7","1","26","while a <= 11:
   a *= 2
   a -= 5","7","1"
"","html-keyboard-response","290","809668","0.0-8.0-10.0-2.0-0.0","4308","<div><div style=""""><a style=""white-space:pre-wrap;""> while a <= 11:
   a *= 2
   a -= 5</a><a style=""""></a></div></div>","14","14","1","26","while a <= 11:
   a *= 2
   a -= 5","14","2"
"","html-keyboard-response","291","811848","0.0-8.0-10.0-3.0-0.0","1669","<div><div style=""""><a style=""white-space:pre-wrap;""> while a <= 11:
   a *= 2
   a -= 5</a><a style=""""></a></div></div>","9","9","1","26","while a <= 11:
   a *= 2
   a -= 5","9","3"
"","html-keyboard-response","292","813135","0.0-8.0-10.0-4.0-0.0","776","<div><div style=""""><a style=""white-space:pre-wrap;""> while a <= 11:
   a *= 2
   a -= 5</a><a style=""""></a></div></div>","backspace","18","0","26","while a <= 11:
   a *= 2
   a -= 5","18","4"
"","html-keyboard-response","294","821551","0.0-8.0-10.0-5.0-0.0","4390","<div><div style=""""><a style=""white-space:pre-wrap;""> while a <= 11:
   a *= 2
   a -= 5</a><a style=""""></a></div></div>","13","13","1","26","while a <= 11:
   a *= 2
   a -= 5","13","5"
"","html-keyboard-response","295","822660","0.0-8.0-10.0-6.0-0.0","600","<div><div style=""""><a style=""white-space:pre-wrap;""> while a <= 11:
   a *= 2
   a -= 5</a><a style=""""></a></div></div>","backspace","","1","","","backspace",""
"","html-keyboard-response","296","826470","0.0-8.0-11.0-0.0-0.0","3290","<div><div style=""""><a style=""white-space:pre-wrap;""> while a >= 6:
   a += 4
   a -= 7</a><a style=""""></a></div></div>","17","17","1","27","while a >= 6:
   a += 4
   a -= 7","17","0"
"","html-keyboard-response","297","827346","0.0-8.0-11.0-1.0-0.0","367","<div><div style=""""><a style=""white-space:pre-wrap;""> while a >= 6:
   a += 4
   a -= 7</a><a style=""""></a></div></div>","10","10","1","27","while a >= 6:
   a += 4
   a -= 7","10","1"
"","html-keyboard-response","298","830636","0.0-8.0-11.0-2.0-0.0","2777","<div><div style=""""><a style=""white-space:pre-wrap;""> while a >= 6:
   a += 4
   a -= 7</a><a style=""""></a></div></div>","14","14","1","27","while a >= 6:
   a += 4
   a -= 7","14","2"
"","html-keyboard-response","299","831433","0.0-8.0-11.0-3.0-0.0","294","<div><div style=""""><a style=""white-space:pre-wrap;""> while a >= 6:
   a += 4
   a -= 7</a><a style=""""></a></div></div>","7","7","1","27","while a >= 6:
   a += 4
   a -= 7","7","3"
"","html-keyboard-response","300","836952","0.0-8.0-11.0-4.0-0.0","5013","<div><div style=""""><a style=""white-space:pre-wrap;""> while a >= 6:
   a += 4
   a -= 7</a><a style=""""></a></div></div>","11","11","1","27","while a >= 6:
   a += 4
   a -= 7","11","4"
"","html-keyboard-response","301","838335","0.0-8.0-11.0-5.0-0.0","876","<div><div style=""""><a style=""white-space:pre-wrap;""> while a >= 6:
   a += 4
   a -= 7</a><a style=""""></a></div></div>","6","4","0","27","while a >= 6:
   a += 4
   a -= 7","4","5"
"","html-keyboard-response","303","842894","0.0-8.0-11.0-6.0-0.0","534","<div><div style=""""><a style=""white-space:pre-wrap;""> while a >= 6:
   a += 4
   a -= 7</a><a style=""""></a></div></div>","backspace","","1","","","backspace",""
"","html-keyboard-response","304","845694","0.0-9.0-1.0","2294","<p style=""font-size: 25px;"">Please press space to start the next program<br>>>>>>></p>"," ","","","","","",""
"","html-keyboard-response","305","849029","0.0-9.0-2.0","3334","<div><div style="" font-size:25px; color:green;""><a style=""white-space:pre-wrap;""> a = 7</a><a style=""""></a></div></div>","","null","","1","a = 7","",""
"","html-keyboard-response","306","852020","0.0-9.0-4.0-0.0-0.0","2481","<div><div style=""""><a style=""white-space:pre-wrap;""> for i in [1, 2]:
   a *= 2
   a -= 4</a><a style=""""></a></div></div>","14","14","1","2","for i in [1, 2]:
   a *= 2
   a -= 4","14","0"
"","html-keyboard-response","307","853240","0.0-9.0-4.0-1.0-0.0","701","<div><div style=""""><a style=""white-space:pre-wrap;""> for i in [1, 2]:
   a *= 2
   a -= 4</a><a style=""""></a></div></div>","10","10","1","2","for i in [1, 2]:
   a *= 2
   a -= 4","10","1"
"","html-keyboard-response","308","854911","0.0-9.0-4.0-2.0-0.0","1152","<div><div style=""""><a style=""white-space:pre-wrap;""> for i in [1, 2]:
   a *= 2
   a -= 4</a><a style=""""></a></div></div>","20","20","1","2","for i in [1, 2]:
   a *= 2
   a -= 4","20","2"
"","html-keyboard-response","309","855633","0.0-9.0-4.0-3.0-0.0","214","<div><div style=""""><a style=""white-space:pre-wrap;""> for i in [1, 2]:
   a *= 2
   a -= 4</a><a style=""""></a></div></div>","16","16","1","2","for i in [1, 2]:
   a *= 2
   a -= 4","16","3"
"","html-keyboard-response","310","856379","0.0-9.0-4.0-4.0-0.0","239","<div><div style=""""><a style=""white-space:pre-wrap;""> for i in [1, 2]:
   a *= 2
   a -= 4</a><a style=""""></a></div></div>","backspace","","1","","","backspace",""
"","html-keyboard-response","311","860905","0.0-9.0-5.0-0.0-0.0","4006","<div><div style=""""><a style=""white-space:pre-wrap;""> for i in [1, 2, 3]:
   a /= 4
   a *= 2</a><a style=""""></a></div></div>","4","4","1","3","for i in [1, 2, 3]:
   a /= 4
   a *= 2","4","0"
"","html-keyboard-response","312","862194","0.0-9.0-5.0-1.0-0.0","775","<div><div style=""""><a style=""white-space:pre-wrap;""> for i in [1, 2, 3]:
   a /= 4
   a *= 2</a><a style=""""></a></div></div>","8","8","1","3","for i in [1, 2, 3]:
   a /= 4
   a *= 2","8","1"
"","html-keyboard-response","313","863624","0.0-9.0-5.0-2.0-0.0","924","<div><div style=""""><a style=""white-space:pre-wrap;""> for i in [1, 2, 3]:
   a /= 4
   a *= 2</a><a style=""""></a></div></div>","2","2","1","3","for i in [1, 2, 3]:
   a /= 4
   a *= 2","2","2"
"","html-keyboard-response","314","869865","0.0-9.0-5.0-3.0-0.0","5735","<div><div style=""""><a style=""white-space:pre-wrap;""> for i in [1, 2, 3]:
   a /= 4
   a *= 2</a><a style=""""></a></div></div>","1","4","0","3","for i in [1, 2, 3]:
   a /= 4
   a *= 2","4","3"
"","html-keyboard-response","316","876089","0.0-9.0-5.0-4.0-0.0","2198","<div><div style=""""><a style=""white-space:pre-wrap;""> for i in [1, 2, 3]:
   a /= 4
   a *= 2</a><a style=""""></a></div></div>","1","1","1","3","for i in [1, 2, 3]:
   a /= 4
   a *= 2","1","4"
"","html-keyboard-response","317","876891","0.0-9.0-5.0-5.0-0.0","299","<div><div style=""""><a style=""white-space:pre-wrap;""> for i in [1, 2, 3]:
   a /= 4
   a *= 2</a><a style=""""></a></div></div>","2","2","1","3","for i in [1, 2, 3]:
   a /= 4
   a *= 2","2","5"
"","html-keyboard-response","318","877729","0.0-9.0-5.0-6.0-0.0","333","<div><div style=""""><a style=""white-space:pre-wrap;""> for i in [1, 2, 3]:
   a /= 4
   a *= 2</a><a style=""""></a></div></div>","backspace","","1","","","backspace",""
"","html-keyboard-response","319","884071","0.0-9.0-6.0-0.0-0.0","5821","<div><div style=""""><a style=""white-space:pre-wrap;""> while a <= 6:
   a = round_up(a*2.5)</a><a style=""""></a></div></div>","6","5","0","4","while a <= 6:
   a = round_up(a*2.5)","5","0"
"","html-keyboard-response","321","891018","0.0-9.0-6.0-1.0-0.0","2908","<div><div style=""""><a style=""white-space:pre-wrap;""> while a <= 6:
   a = round_up(a*2.5)</a><a style=""""></a></div></div>","13","13","1","4","while a <= 6:
   a = round_up(a*2.5)","13","1"
"","html-keyboard-response","322","892629","0.0-9.0-6.0-2.0-0.0","1100","<div><div style=""""><a style=""white-space:pre-wrap;""> while a <= 6:
   a = round_up(a*2.5)</a><a style=""""></a></div></div>","backspace","","1","","","backspace",""
"","html-keyboard-response","323","897115","0.0-9.0-7.0-0.0-0.0","3965","<div><div style=""""><a style=""white-space:pre-wrap;""> for i in [1, 2, 3]:
   a = average(a,5)</a><a style=""""></a></div></div>","9","9","1","5","for i in [1, 2, 3]:
   a = average(a,5)","9","0"
"","html-keyboard-response","324","899993","0.0-9.0-7.0-1.0-0.0","2363","<div><div style=""""><a style=""white-space:pre-wrap;""> for i in [1, 2, 3]:
   a = average(a,5)</a><a style=""""></a></div></div>","7","7","1","5","for i in [1, 2, 3]:
   a = average(a,5)","7","1"
"","html-keyboard-response","325","903573","0.0-9.0-7.0-2.0-0.0","3074","<div><div style=""""><a style=""white-space:pre-wrap;""> for i in [1, 2, 3]:
   a = average(a,5)</a><a style=""""></a></div></div>","6","6","1","5","for i in [1, 2, 3]:
   a = average(a,5)","6","2"
"","html-keyboard-response","326","904625","0.0-9.0-7.0-3.0-0.0","546","<div><div style=""""><a style=""white-space:pre-wrap;""> for i in [1, 2, 3]:
   a = average(a,5)</a><a style=""""></a></div></div>","backspace","","1","","","backspace",""
"","html-keyboard-response","327","906842","0.0-9.0-8.0-0.0-0.0","1703","<div><div style=""""><a style=""white-space:pre-wrap;""> while a >= 4:
   a += 2
   a /= 2</a><a style=""""></a></div></div>","8","8","1","6","while a >= 4:
   a += 2
   a /= 2","8","0"
"","html-keyboard-response","328","908385","0.0-9.0-8.0-1.0-0.0","1036","<div><div style=""""><a style=""white-space:pre-wrap;""> while a >= 4:
   a += 2
   a /= 2</a><a style=""""></a></div></div>","4","4","1","6","while a >= 4:
   a += 2
   a /= 2","4","1"
"","html-keyboard-response","329","909619","0.0-9.0-8.0-2.0-0.0","730","<div><div style=""""><a style=""white-space:pre-wrap;""> while a >= 4:
   a += 2
   a /= 2</a><a style=""""></a></div></div>","6","6","1","6","while a >= 4:
   a += 2
   a /= 2","6","2"
"","html-keyboard-response","330","910650","0.0-9.0-8.0-3.0-0.0","512","<div><div style=""""><a style=""white-space:pre-wrap;""> while a >= 4:
   a += 2
   a /= 2</a><a style=""""></a></div></div>","3","3","1","6","while a >= 4:
   a += 2
   a /= 2","3","3"
"","html-keyboard-response","331","911721","0.0-9.0-8.0-4.0-0.0","563","<div><div style=""""><a style=""white-space:pre-wrap;""> while a >= 4:
   a += 2
   a /= 2</a><a style=""""></a></div></div>","backspace","","1","","","backspace",""
"","html-keyboard-response","332","914389","0.0-9.0-9.0-0.0-0.0","2149","<div><div style=""""><a style=""white-space:pre-wrap;""> while a <= 9:
   a *= 2</a><a style=""""></a></div></div>","6","6","1","7","while a <= 9:
   a *= 2","6","0"
"","html-keyboard-response","333","915967","0.0-9.0-9.0-1.0-0.0","1057","<div><div style=""""><a style=""white-space:pre-wrap;""> while a <= 9:
   a *= 2</a><a style=""""></a></div></div>","12","12","1","7","while a <= 9:
   a *= 2","12","1"
"","html-keyboard-response","334","916745","0.0-9.0-9.0-2.0-0.0","266","<div><div style=""""><a style=""white-space:pre-wrap;""> while a <= 9:
   a *= 2</a><a style=""""></a></div></div>","backspace","","1","","","backspace",""
"","html-keyboard-response","335","919396","0.0-9.0-10.0-0.0-0.0","2146","<div><div style=""""><a style=""white-space:pre-wrap;""> for i in [1, 2]:
   a += 6
   a -= 4</a><a style=""""></a></div></div>","18","18","1","8","for i in [1, 2]:
   a += 6
   a -= 4","18","0"
"","html-keyboard-response","336","920938","0.0-9.0-10.0-1.0-0.0","1039","<div><div style=""""><a style=""white-space:pre-wrap;""> for i in [1, 2]:
   a += 6
   a -= 4</a><a style=""""></a></div></div>","14","14","1","8","for i in [1, 2]:
   a += 6
   a -= 4","14","1"
"","html-keyboard-response","337","923222","0.0-9.0-10.0-2.0-0.0","1763","<div><div style=""""><a style=""white-space:pre-wrap;""> for i in [1, 2]:
   a += 6
   a -= 4</a><a style=""""></a></div></div>","20","20","1","8","for i in [1, 2]:
   a += 6
   a -= 4","20","2"
"","html-keyboard-response","338","923984","0.0-9.0-10.0-3.0-0.0","255","<div><div style=""""><a style=""white-space:pre-wrap;""> for i in [1, 2]:
   a += 6
   a -= 4</a><a style=""""></a></div></div>","16","16","1","8","for i in [1, 2]:
   a += 6
   a -= 4","16","3"
"","html-keyboard-response","339","924750","0.0-9.0-10.0-4.0-0.0","251","<div><div style=""""><a style=""white-space:pre-wrap;""> for i in [1, 2]:
   a += 6
   a -= 4</a><a style=""""></a></div></div>","backspace","","1","","","backspace",""
"","html-keyboard-response","340","927711","0.0-9.0-11.0-0.0-0.0","2451","<div><div style=""""><a style=""white-space:pre-wrap;""> for i in [1, 2, 3, 4]:
   a -= 3</a><a style=""""></a></div></div>","13","13","1","9","for i in [1, 2, 3, 4]:
   a -= 3","13","0"
"","html-keyboard-response","341","929035","0.0-9.0-11.0-1.0-0.0","816","<div><div style=""""><a style=""white-space:pre-wrap;""> for i in [1, 2, 3, 4]:
   a -= 3</a><a style=""""></a></div></div>","10","10","1","9","for i in [1, 2, 3, 4]:
   a -= 3","10","1"
"","html-keyboard-response","342","930128","0.0-9.0-11.0-2.0-0.0","589","<div><div style=""""><a style=""white-space:pre-wrap;""> for i in [1, 2, 3, 4]:
   a -= 3</a><a style=""""></a></div></div>","7","7","1","9","for i in [1, 2, 3, 4]:
   a -= 3","7","2"
"","html-keyboard-response","343","931081","0.0-9.0-11.0-3.0-0.0","433","<div><div style=""""><a style=""white-space:pre-wrap;""> for i in [1, 2, 3, 4]:
   a -= 3</a><a style=""""></a></div></div>","4","4","1","9","for i in [1, 2, 3, 4]:
   a -= 3","4","3"
"","html-keyboard-response","344","931883","0.0-9.0-11.0-4.0-0.0","293","<div><div style=""""><a style=""white-space:pre-wrap;""> for i in [1, 2, 3, 4]:
   a -= 3</a><a style=""""></a></div></div>","backspace","","1","","","backspace",""
"","html-keyboard-response","345","935773","0.0-10.0-1.0","3383","<p style=""font-size: 25px;"">Please press space to start the next program<br>>>>>>></p>"," ","","","","","",""
"","html-keyboard-response","346","937048","0.0-10.0-2.0","1274","<div><div style="" font-size:25px; color:green;""><a style=""white-space:pre-wrap;""> a = 18</a><a style=""""></a></div></div>","","null","","28","a = 18","",""
"","html-keyboard-response","347","940974","0.0-10.0-4.0-0.0-0.0","3415","<div><div style=""""><a style=""white-space:pre-wrap;""> for i in [1, 2]:
   a /= 3
   a *= 2</a><a style=""""></a></div></div>","6","6","1","29","for i in [1, 2]:
   a /= 3
   a *= 2","6","0"
"","html-keyboard-response","348","942409","0.0-10.0-4.0-1.0-0.0","930","<div><div style=""""><a style=""white-space:pre-wrap;""> for i in [1, 2]:
   a /= 3
   a *= 2</a><a style=""""></a></div></div>","12","12","1","29","for i in [1, 2]:
   a /= 3
   a *= 2","12","1"
"","html-keyboard-response","349","945047","0.0-10.0-4.0-2.0-0.0","2118","<div><div style=""""><a style=""white-space:pre-wrap;""> for i in [1, 2]:
   a /= 3
   a *= 2</a><a style=""""></a></div></div>","4","4","1","29","for i in [1, 2]:
   a /= 3
   a *= 2","4","2"
"","html-keyboard-response","350","946396","0.0-10.0-4.0-3.0-0.0","847","<div><div style=""""><a style=""white-space:pre-wrap;""> for i in [1, 2]:
   a /= 3
   a *= 2</a><a style=""""></a></div></div>","8","8","1","29","for i in [1, 2]:
   a /= 3
   a *= 2","8","3"
"","html-keyboard-response","351","947180","0.0-10.0-4.0-4.0-0.0","280","<div><div style=""""><a style=""white-space:pre-wrap;""> for i in [1, 2]:
   a /= 3
   a *= 2</a><a style=""""></a></div></div>","backspace","","1","","","backspace",""
"","html-keyboard-response","352","949448","0.0-10.0-5.0-0.0-0.0","1749","<div><div style=""""><a style=""white-space:pre-wrap;""> while a >= 2:
   a /= 2</a><a style=""""></a></div></div>","4","4","1","30","while a >= 2:
   a /= 2","4","0"
"","html-keyboard-response","353","951497","0.0-10.0-5.0-1.0-0.0","1538","<div><div style=""""><a style=""white-space:pre-wrap;""> while a >= 2:
   a /= 2</a><a style=""""></a></div></div>","2","2","1","30","while a >= 2:
   a /= 2","2","1"
"","html-keyboard-response","354","952219","0.0-10.0-5.0-2.0-0.0","210","<div><div style=""""><a style=""white-space:pre-wrap;""> while a >= 2:
   a /= 2</a><a style=""""></a></div></div>","1","1","1","30","while a >= 2:
   a /= 2","1","2"
"","html-keyboard-response","355","952835","0.0-10.0-5.0-3.0-0.0","97","<div><div style=""""><a style=""white-space:pre-wrap;""> while a >= 2:
   a /= 2</a><a style=""""></a></div></div>","backspace","","1","","","backspace",""
"","html-keyboard-response","356","954789","0.0-10.0-6.0-0.0-0.0","1449","<div><div style=""""><a style=""white-space:pre-wrap;""> while a <= 7:
   a += 2</a><a style=""""></a></div></div>","3","3","1","31","while a <= 7:
   a += 2","3","0"
"","html-keyboard-response","357","955670","0.0-10.0-6.0-1.0-0.0","372","<div><div style=""""><a style=""white-space:pre-wrap;""> while a <= 7:
   a += 2</a><a style=""""></a></div></div>","5","5","1","31","while a <= 7:
   a += 2","5","1"
"","html-keyboard-response","358","957764","0.0-10.0-6.0-2.0-0.0","1576","<div><div style=""""><a style=""white-space:pre-wrap;""> while a <= 7:
   a += 2</a><a style=""""></a></div></div>","8","7","0","31","while a <= 7:
   a += 2","7","2"
"","html-keyboard-response","360","962521","0.0-10.0-6.0-3.0-0.0","741","<div><div style=""""><a style=""white-space:pre-wrap;""> while a <= 7:
   a += 2</a><a style=""""></a></div></div>","9","9","1","31","while a <= 7:
   a += 2","9","3"
"","html-keyboard-response","361","963097","0.0-10.0-6.0-4.0-0.0","69","<div><div style=""""><a style=""white-space:pre-wrap;""> while a <= 7:
   a += 2</a><a style=""""></a></div></div>","backspace","","1","","","backspace",""
"","html-keyboard-response","362","965654","0.0-10.0-7.0-0.0-0.0","2039","<div><div style=""""><a style=""white-space:pre-wrap;""> while a >= 6:
   a += 9
   a /= 3</a><a style=""""></a></div></div>","18","18","1","32","while a >= 6:
   a += 9
   a /= 3","18","0"
"","html-keyboard-response","363","967294","0.0-10.0-7.0-1.0-0.0","1134","<div><div style=""""><a style=""white-space:pre-wrap;""> while a >= 6:
   a += 9
   a /= 3</a><a style=""""></a></div></div>","6","6","1","32","while a >= 6:
   a += 9
   a /= 3","6","1"
"","html-keyboard-response","364","971364","0.0-10.0-7.0-2.0-0.0","3554","<div><div style=""""><a style=""white-space:pre-wrap;""> while a >= 6:
   a += 9
   a /= 3</a><a style=""""></a></div></div>","15","15","1","32","while a >= 6:
   a += 9
   a /= 3","15","2"
"","html-keyboard-response","365","972186","0.0-10.0-7.0-3.0-0.0","307","<div><div style=""""><a style=""white-space:pre-wrap;""> while a >= 6:
   a += 9
   a /= 3</a><a style=""""></a></div></div>","5","5","1","32","while a >= 6:
   a += 9
   a /= 3","5","3"
"","html-keyboard-response","366","972910","0.0-10.0-7.0-4.0-0.0","211","<div><div style=""""><a style=""white-space:pre-wrap;""> while a >= 6:
   a += 9
   a /= 3</a><a style=""""></a></div></div>","backspace","","1","","","backspace",""
"","html-keyboard-response","367","977924","0.0-10.0-8.0-0.0-0.0","4504","<div><div style=""""><a style=""white-space:pre-wrap;""> while a <= 11:
   a = round_down(a*1.5)</a><a style=""""></a></div></div>","7","7","1","33","while a <= 11:
   a = round_down(a*1.5)","7","0"
"","html-keyboard-response","368","984295","0.0-10.0-8.0-1.0-0.0","5855","<div><div style=""""><a style=""white-space:pre-wrap;""> while a <= 11:
   a = round_down(a*1.5)</a><a style=""""></a></div></div>","12","10","0","33","while a <= 11:
   a = round_down(a*1.5)","10","1"
"","html-keyboard-response","370","988613","0.0-10.0-8.0-2.0-0.0","303","<div><div style=""""><a style=""white-space:pre-wrap;""> while a <= 11:
   a = round_down(a*1.5)</a><a style=""""></a></div></div>","15","15","1","33","while a <= 11:
   a = round_down(a*1.5)","15","2"
"","html-keyboard-response","371","989446","0.0-10.0-8.0-3.0-0.0","317","<div><div style=""""><a style=""white-space:pre-wrap;""> while a <= 11:
   a = round_down(a*1.5)</a><a style=""""></a></div></div>","backspace","","1","","","backspace",""
"","html-keyboard-response","372","992303","0.0-10.0-9.0-0.0-0.0","2344","<div><div style=""""><a style=""white-space:pre-wrap;""> for i in [1, 2]:
   a = average(a,3)</a><a style=""""></a></div></div>","9","9","1","34","for i in [1, 2]:
   a = average(a,3)","9","0"
"","html-keyboard-response","373","994255","0.0-10.0-9.0-1.0-0.0","1436","<div><div style=""""><a style=""white-space:pre-wrap;""> for i in [1, 2]:
   a = average(a,3)</a><a style=""""></a></div></div>","6","6","1","34","for i in [1, 2]:
   a = average(a,3)","6","1"
"","html-keyboard-response","374","995660","0.0-10.0-9.0-2.0-0.0","901","<div><div style=""""><a style=""white-space:pre-wrap;""> for i in [1, 2]:
   a = average(a,3)</a><a style=""""></a></div></div>","backspace","","1","","","backspace",""
"","html-keyboard-response","375","998399","0.0-10.0-10.0-0.0-0.0","2229","<div><div style=""""><a style=""white-space:pre-wrap;""> for i in [1, 2, 3]:
   a *= 2
   a -= 5</a><a style=""""></a></div></div>","12","12","1","35","for i in [1, 2, 3]:
   a *= 2
   a -= 5","12","0"
"","html-keyboard-response","376","999452","0.0-10.0-10.0-1.0-0.0","533","<div><div style=""""><a style=""white-space:pre-wrap;""> for i in [1, 2, 3]:
   a *= 2
   a -= 5</a><a style=""""></a></div></div>","7","7","1","35","for i in [1, 2, 3]:
   a *= 2
   a -= 5","7","1"
"","html-keyboard-response","377","1001424","0.0-10.0-10.0-2.0-0.0","1464","<div><div style=""""><a style=""white-space:pre-wrap;""> for i in [1, 2, 3]:
   a *= 2
   a -= 5</a><a style=""""></a></div></div>","14","14","1","35","for i in [1, 2, 3]:
   a *= 2
   a -= 5","14","2"
"","html-keyboard-response","378","1003350","0.0-10.0-10.0-3.0-0.0","1421","<div><div style=""""><a style=""white-space:pre-wrap;""> for i in [1, 2, 3]:
   a *= 2
   a -= 5</a><a style=""""></a></div></div>","9","9","1","35","for i in [1, 2, 3]:
   a *= 2
   a -= 5","9","3"
"","html-keyboard-response","379","1006438","0.0-10.0-10.0-4.0-0.0","2568","<div><div style=""""><a style=""white-space:pre-wrap;""> for i in [1, 2, 3]:
   a *= 2
   a -= 5</a><a style=""""></a></div></div>","19","18","0","35","for i in [1, 2, 3]:
   a *= 2
   a -= 5","18","4"
"","html-keyboard-response","381","1012738","0.0-10.0-10.0-5.0-0.0","2268","<div><div style=""""><a style=""white-space:pre-wrap;""> for i in [1, 2, 3]:
   a *= 2
   a -= 5</a><a style=""""></a></div></div>","13","13","1","35","for i in [1, 2, 3]:
   a *= 2
   a -= 5","13","5"
"","html-keyboard-response","382","1013553","0.0-10.0-10.0-6.0-0.0","304","<div><div style=""""><a style=""white-space:pre-wrap;""> for i in [1, 2, 3]:
   a *= 2
   a -= 5</a><a style=""""></a></div></div>","backspace","","1","","","backspace",""
"","html-keyboard-response","383","1017575","0.0-10.0-11.0-0.0-0.0","3515","<div><div style=""""><a style=""white-space:pre-wrap;""> while a >= 6:
   a += 4
   a -= 7</a><a style=""""></a></div></div>","17","17","1","36","while a >= 6:
   a += 4
   a -= 7","17","0"
"","html-keyboard-response","384","1019034","0.0-10.0-11.0-1.0-0.0","955","<div><div style=""""><a style=""white-space:pre-wrap;""> while a >= 6:
   a += 4
   a -= 7</a><a style=""""></a></div></div>","10","10","1","36","while a >= 6:
   a += 4
   a -= 7","10","1"
"","html-keyboard-response","385","1022259","0.0-10.0-11.0-2.0-0.0","2710","<div><div style=""""><a style=""white-space:pre-wrap;""> while a >= 6:
   a += 4
   a -= 7</a><a style=""""></a></div></div>","14","14","1","36","while a >= 6:
   a += 4
   a -= 7","14","2"
"","html-keyboard-response","386","1024394","0.0-10.0-11.0-3.0-0.0","1615","<div><div style=""""><a style=""white-space:pre-wrap;""> while a >= 6:
   a += 4
   a -= 7</a><a style=""""></a></div></div>","3","7","0","36","while a >= 6:
   a += 4
   a -= 7","7","3"
"","html-keyboard-response","388","1029376","0.0-10.0-11.0-4.0-0.0","956","<div><div style=""""><a style=""white-space:pre-wrap;""> while a >= 6:
   a += 4
   a -= 7</a><a style=""""></a></div></div>","11","11","1","36","while a >= 6:
   a += 4
   a -= 7","11","4"
"","html-keyboard-response","389","1030758","0.0-10.0-11.0-5.0-0.0","879","<div><div style=""""><a style=""white-space:pre-wrap;""> while a >= 6:
   a += 4
   a -= 7</a><a style=""""></a></div></div>","4","4","1","36","while a >= 6:
   a += 4
   a -= 7","4","5"
"","html-keyboard-response","390","1032719","0.0-10.0-11.0-6.0-0.0","1440","<div><div style=""""><a style=""white-space:pre-wrap;""> while a >= 6:
   a += 4
   a -= 7</a><a style=""""></a></div></div>","backspace","","1","","","backspace",""
"","html-keyboard-response","391","1082664","0.0-11.0-0.0-0.0","49448","<p style=""position:absolute; top:30%; font-size:25px; color:green;"" >Take a short break now</p>"," ","","","","","",""
"","html-keyboard-response","392","1085355","0.0-11.0-1.0","2689","<p style=""font-size: 25px;"">Please press space to start the next program<br>>>>>>></p>"," ","","","","","",""
"","html-keyboard-response","393","1087655","0.0-11.0-2.0","2299","<div><div style="" font-size:25px; color:green;""><a style=""white-space:pre-wrap;""> a = 9</a><a style=""""></a></div></div>","","null","","100","a = 9","",""
"","html-keyboard-response","394","1090176","0.0-11.0-4.0-0.0-0.0","2017","<div><div style=""""><a style=""white-space:pre-wrap;""> for i in [1, 2]:
   a /= 3</a><a style=""""></a></div></div>","3","3","1","101","for i in [1, 2]:
   a /= 3","3","0"
"","html-keyboard-response","395","1091009","0.0-11.0-4.0-1.0-0.0","320","<div><div style=""""><a style=""white-space:pre-wrap;""> for i in [1, 2]:
   a /= 3</a><a style=""""></a></div></div>","1","1","1","101","for i in [1, 2]:
   a /= 3","1","1"
"","html-keyboard-response","396","1092083","0.0-11.0-4.0-2.0-0.0","553","<div><div style=""""><a style=""white-space:pre-wrap;""> for i in [1, 2]:
   a /= 3</a><a style=""""></a></div></div>","backspace","","1","","","backspace",""
"","html-keyboard-response","397","1093949","0.0-11.0-5.0-0.0-0.0","1359","<div><div style=""""><a style=""white-space:pre-wrap;""> for i in [1, 2, 3]:
   a += 6</a><a style=""""></a></div></div>","7","7","1","102","for i in [1, 2, 3]:
   a += 6","7","0"
"","html-keyboard-response","398","1095258","0.0-11.0-5.0-1.0-0.0","789","<div><div style=""""><a style=""white-space:pre-wrap;""> for i in [1, 2, 3]:
   a += 6</a><a style=""""></a></div></div>","13","13","1","102","for i in [1, 2, 3]:
   a += 6","13","1"
"","html-keyboard-response","399","1098715","0.0-11.0-5.0-2.0-0.0","2936","<div><div style=""""><a style=""white-space:pre-wrap;""> for i in [1, 2, 3]:
   a += 6</a><a style=""""></a></div></div>","19","19","1","102","for i in [1, 2, 3]:
   a += 6","19","2"
"","html-keyboard-response","400","1099480","0.0-11.0-5.0-3.0-0.0","262","<div><div style=""""><a style=""white-space:pre-wrap;""> for i in [1, 2, 3]:
   a += 6</a><a style=""""></a></div></div>","backspace","","1","","","backspace",""
"","html-keyboard-response","401","1100916","0.0-11.0-6.0-0.0-0.0","927","<div><div style=""""><a style=""white-space:pre-wrap;""> while a >= 10:
   a += 1
   a -= 8</a><a style=""""></a></div></div>","20","20","1","103","while a >= 10:
   a += 1
   a -= 8","20","0"
"","html-keyboard-response","402","1102199","0.0-11.0-6.0-1.0-0.0","780","<div><div style=""""><a style=""white-space:pre-wrap;""> while a >= 10:
   a += 1
   a -= 8</a><a style=""""></a></div></div>","12","12","1","103","while a >= 10:
   a += 1
   a -= 8","12","1"
"","html-keyboard-response","403","1104100","0.0-11.0-6.0-2.0-0.0","1391","<div><div style=""""><a style=""white-space:pre-wrap;""> while a >= 10:
   a += 1
   a -= 8</a><a style=""""></a></div></div>","13","13","1","103","while a >= 10:
   a += 1
   a -= 8","13","2"
"","html-keyboard-response","404","1105813","0.0-11.0-6.0-3.0-0.0","1205","<div><div style=""""><a style=""white-space:pre-wrap;""> while a >= 10:
   a += 1
   a -= 8</a><a style=""""></a></div></div>","5","5","1","103","while a >= 10:
   a += 1
   a -= 8","5","3"
"","html-keyboard-response","405","1106987","0.0-11.0-6.0-4.0-0.0","667","<div><div style=""""><a style=""white-space:pre-wrap;""> while a >= 10:
   a += 1
   a -= 8</a><a style=""""></a></div></div>","backspace","","1","","","backspace",""
"","html-keyboard-response","406","1109906","0.0-11.0-7.0-0.0-0.0","2396","<div><div style=""""><a style=""white-space:pre-wrap;""> while a <= 6:
   a *= 3
   a -= 9</a><a style=""""></a></div></div>","15","15","1","104","while a <= 6:
   a *= 3
   a -= 9","15","0"
"","html-keyboard-response","407","1114660","0.0-11.0-7.0-1.0-0.0","4241","<div><div style=""""><a style=""white-space:pre-wrap;""> while a <= 6:
   a *= 3
   a -= 9</a><a style=""""></a></div></div>","6","6","1","104","while a <= 6:
   a *= 3
   a -= 9","6","1"
"","html-keyboard-response","408","1116130","0.0-11.0-7.0-2.0-0.0","961","<div><div style=""""><a style=""white-space:pre-wrap;""> while a <= 6:
   a *= 3
   a -= 9</a><a style=""""></a></div></div>","18","18","1","104","while a <= 6:
   a *= 3
   a -= 9","18","2"
"","html-keyboard-response","409","1118059","0.0-11.0-7.0-3.0-0.0","1420","<div><div style=""""><a style=""white-space:pre-wrap;""> while a <= 6:
   a *= 3
   a -= 9</a><a style=""""></a></div></div>","9","9","1","104","while a <= 6:
   a *= 3
   a -= 9","9","3"
"","html-keyboard-response","410","1119319","0.0-11.0-7.0-4.0-0.0","750","<div><div style=""""><a style=""white-space:pre-wrap;""> while a <= 6:
   a *= 3
   a -= 9</a><a style=""""></a></div></div>","backspace","","1","","","backspace",""
"","html-keyboard-response","411","1122947","0.0-11.0-8.0-0.0-0.0","3118","<div><div style=""""><a style=""white-space:pre-wrap;""> for i in [1, 2, 3]:
   a = average(a, 1)</a><a style=""""></a></div></div>","5","5","1","105","for i in [1, 2, 3]:
   a = average(a, 1)","5","0"
"","html-keyboard-response","412","1125396","0.0-11.0-8.0-1.0-0.0","1946","<div><div style=""""><a style=""white-space:pre-wrap;""> for i in [1, 2, 3]:
   a = average(a, 1)</a><a style=""""></a></div></div>","3","3","1","105","for i in [1, 2, 3]:
   a = average(a, 1)","3","1"
"","html-keyboard-response","413","1126592","0.0-11.0-8.0-2.0-0.0","684","<div><div style=""""><a style=""white-space:pre-wrap;""> for i in [1, 2, 3]:
   a = average(a, 1)</a><a style=""""></a></div></div>","2","2","1","105","for i in [1, 2, 3]:
   a = average(a, 1)","2","2"
"","html-keyboard-response","414","1128396","0.0-11.0-8.0-3.0-0.0","1298","<div><div style=""""><a style=""white-space:pre-wrap;""> for i in [1, 2, 3]:
   a = average(a, 1)</a><a style=""""></a></div></div>","backspace","","1","","","backspace",""
"","html-keyboard-response","415","1129649","0.0-11.0-9.0-0.0-0.0","749","<div><div style=""""><a style=""white-space:pre-wrap;""> while a <= 9:
   a -= 1
   a *= 5</a><a style=""""></a></div></div>","1","1","1","106","while a <= 9:
   a -= 1
   a *= 5","1","0"
"","html-keyboard-response","416","1131292","0.0-11.0-9.0-1.0-0.0","1134","<div><div style=""""><a style=""white-space:pre-wrap;""> while a <= 9:
   a -= 1
   a *= 5</a><a style=""""></a></div></div>","5","5","1","106","while a <= 9:
   a -= 1
   a *= 5","5","1"
"","html-keyboard-response","417","1132858","0.0-11.0-9.0-2.0-0.0","1059","<div><div style=""""><a style=""white-space:pre-wrap;""> while a <= 9:
   a -= 1
   a *= 5</a><a style=""""></a></div></div>","4","4","1","106","while a <= 9:
   a -= 1
   a *= 5","4","2"
"","html-keyboard-response","418","1134332","0.0-11.0-9.0-3.0-0.0","963","<div><div style=""""><a style=""white-space:pre-wrap;""> while a <= 9:
   a -= 1
   a *= 5</a><a style=""""></a></div></div>","20","20","1","106","while a <= 9:
   a -= 1
   a *= 5","20","3"
"","html-keyboard-response","419","1135151","0.0-11.0-9.0-4.0-0.0","302","<div><div style=""""><a style=""white-space:pre-wrap;""> while a <= 9:
   a -= 1
   a *= 5</a><a style=""""></a></div></div>","backspace","","1","","","backspace",""
"","html-keyboard-response","420","1138119","0.0-11.0-10.0-0.0-0.0","2450","<div><div style=""""><a style=""white-space:pre-wrap;""> while a >= 12:
   a -= 3</a><a style=""""></a></div></div>","17","17","1","107","while a >= 12:
   a -= 3","17","0"
"","html-keyboard-response","421","1140238","0.0-11.0-10.0-1.0-0.0","1610","<div><div style=""""><a style=""white-space:pre-wrap;""> while a >= 12:
   a -= 3</a><a style=""""></a></div></div>","13","14","0","107","while a >= 12:
   a -= 3","14","1"
"","html-keyboard-response","423","1144990","0.0-11.0-10.0-2.0-0.0","721","<div><div style=""""><a style=""white-space:pre-wrap;""> while a >= 12:
   a -= 3</a><a style=""""></a></div></div>","11","11","1","107","while a >= 12:
   a -= 3","11","2"
"","html-keyboard-response","424","1146438","0.0-11.0-10.0-3.0-0.0","929","<div><div style=""""><a style=""white-space:pre-wrap;""> while a >= 12:
   a -= 3</a><a style=""""></a></div></div>","backspace","","1","","","backspace",""
"","html-keyboard-response","425","1151685","0.0-11.0-11.0-0.0-0.0","4727","<div><div style=""""><a style=""white-space:pre-wrap;""> for i in [1, 2]:
   a -= 5</a><a style=""""></a></div></div>","6","6","1","108","for i in [1, 2]:
   a -= 5","6","0"
"","html-keyboard-response","426","1153091","0.0-11.0-11.0-1.0-0.0","903","<div><div style=""""><a style=""white-space:pre-wrap;""> for i in [1, 2]:
   a -= 5</a><a style=""""></a></div></div>","1","1","1","108","for i in [1, 2]:
   a -= 5","1","1"
