"success","trial_type","trial_index","time_elapsed","internal_node_id","rt","stimulus","response","expected_response","correct","uid","text1","correct_response","loop_step"
"true","fullscreen","0","4972","0.0-0.0","","","","","","","","",""
"","html-keyboard-response","1","12484","0.0-1.0","7508","Please make sure that your keyboard is in English mode. Press 'A' to continue","a","","","","","",""
"","html-keyboard-response","2","14706","0.0-2.0-1.0","2220","<p style=""font-size: 25px;"">Please press space to start the next program<br>>>>>>></p>"," ","","","","","",""
"","html-keyboard-response","3","15754","0.0-2.0-2.0","1046","<div><div style="" font-size:25px; color:green;""><a style=""white-space:pre-wrap;""> a = 11</a><a style=""""></a></div></div>","","null","","55","a = 11","",""
"","html-keyboard-response","4","18346","0.0-2.0-4.0-0.0-0.0","2083","<div><div style=""""><a style=""white-space:pre-wrap;""> while a >= 5:
   a += 4
   a /= 3</a><a style=""""></a></div></div>","15","15","1","56","while a >= 5:
   a += 4
   a /= 3","15","0"
"","html-keyboard-response","5","19834","0.0-2.0-4.0-1.0-0.0","977","<div><div style=""""><a style=""white-space:pre-wrap;""> while a >= 5:
   a += 4
   a /= 3</a><a style=""""></a></div></div>","5","5","1","56","while a >= 5:
   a += 4
   a /= 3","5","1"
"","html-keyboard-response","6","21874","0.0-2.0-4.0-2.0-0.0","1522","<div><div style=""""><a style=""white-space:pre-wrap;""> while a >= 5:
   a += 4
   a /= 3</a><a style=""""></a></div></div>","9","9","1","56","while a >= 5:
   a += 4
   a /= 3","9","2"
"","html-keyboard-response","7","22643","0.0-2.0-4.0-3.0-0.0","264","<div><div style=""""><a style=""white-space:pre-wrap;""> while a >= 5:
   a += 4
   a /= 3</a><a style=""""></a></div></div>","3","3","1","56","while a >= 5:
   a += 4
   a /= 3","3","3"
"","html-keyboard-response","8","23506","0.0-2.0-4.0-4.0-0.0","346","<div><div style=""""><a style=""white-space:pre-wrap;""> while a >= 5:
   a += 4
   a /= 3</a><a style=""""></a></div></div>","backspace","","1","","","backspace",""
"","html-keyboard-response","9","28458","0.0-2.0-5.0-0.0-0.0","4439","<div><div style=""""><a style=""white-space:pre-wrap;""> for i in [1, 2]:
   a = round_down(a*2.5)</a><a style=""""></a></div></div>","7","7","1","57","for i in [1, 2]:
   a = round_down(a*2.5)","7","0"
"","html-keyboard-response","10","32131","0.0-2.0-5.0-1.0-0.0","3158","<div><div style=""""><a style=""white-space:pre-wrap;""> for i in [1, 2]:
   a = round_down(a*2.5)</a><a style=""""></a></div></div>","18","17","0","57","for i in [1, 2]:
   a = round_down(a*2.5)","17","1"
"","html-keyboard-response","12","36546","0.0-2.0-5.0-2.0-0.0","405","<div><div style=""""><a style=""white-space:pre-wrap;""> for i in [1, 2]:
   a = round_down(a*2.5)</a><a style=""""></a></div></div>","backspace","","1","","","backspace",""
"","html-keyboard-response","13","40811","0.0-2.0-6.0-0.0-0.0","3753","<div><div style=""""><a style=""white-space:pre-wrap;""> for i in [1, 2, 3, 4]:
   a = average(a,1)</a><a style=""""></a></div></div>","9","9","1","58","for i in [1, 2, 3, 4]:
   a = average(a,1)","9","0"
"","html-keyboard-response","14","43706","0.0-2.0-6.0-1.0-0.0","2379","<div><div style=""""><a style=""white-space:pre-wrap;""> for i in [1, 2, 3, 4]:
   a = average(a,1)</a><a style=""""></a></div></div>","5","5","1","58","for i in [1, 2, 3, 4]:
   a = average(a,1)","5","1"
"","html-keyboard-response","15","44650","0.0-2.0-6.0-2.0-0.0","426","<div><div style=""""><a style=""white-space:pre-wrap;""> for i in [1, 2, 3, 4]:
   a = average(a,1)</a><a style=""""></a></div></div>","3","3","1","58","for i in [1, 2, 3, 4]:
   a = average(a,1)","3","2"
"","html-keyboard-response","16","45275","0.0-2.0-6.0-3.0-0.0","114","<div><div style=""""><a style=""white-space:pre-wrap;""> for i in [1, 2, 3, 4]:
   a = average(a,1)</a><a style=""""></a></div></div>","2","2","1","58","for i in [1, 2, 3, 4]:
   a = average(a,1)","2","3"
"","html-keyboard-response","17","47946","0.0-2.0-6.0-4.0-0.0","2161","<div><div style=""""><a style=""white-space:pre-wrap;""> for i in [1, 2, 3, 4]:
   a = average(a,1)</a><a style=""""></a></div></div>","backspace","","1","","","backspace",""
"","html-keyboard-response","18","50610","0.0-2.0-7.0-0.0-0.0","2152","<div><div style=""""><a style=""white-space:pre-wrap;""> for i in [1, 2]:
   a *= 3
   a -= 1</a><a style=""""></a></div></div>","6","6","1","59","for i in [1, 2]:
   a *= 3
   a -= 1","6","0"
"","html-keyboard-response","19","51602","0.0-2.0-7.0-1.0-0.0","475","<div><div style=""""><a style=""white-space:pre-wrap;""> for i in [1, 2]:
   a *= 3
   a -= 1</a><a style=""""></a></div></div>","5","5","1","59","for i in [1, 2]:
   a *= 3
   a -= 1","5","1"
"","html-keyboard-response","20","53562","0.0-2.0-7.0-2.0-0.0","1450","<div><div style=""""><a style=""white-space:pre-wrap;""> for i in [1, 2]:
   a *= 3
   a -= 1</a><a style=""""></a></div></div>","15","15","1","59","for i in [1, 2]:
   a *= 3
   a -= 1","15","2"
"","html-keyboard-response","21","54290","0.0-2.0-7.0-3.0-0.0","222","<div><div style=""""><a style=""white-space:pre-wrap;""> for i in [1, 2]:
   a *= 3
   a -= 1</a><a style=""""></a></div></div>","14","14","1","59","for i in [1, 2]:
   a *= 3
   a -= 1","14","3"
"","html-keyboard-response","22","55138","0.0-2.0-7.0-4.0-0.0","337","<div><div style=""""><a style=""white-space:pre-wrap;""> for i in [1, 2]:
   a *= 3
   a -= 1</a><a style=""""></a></div></div>","backspace","","1","","","backspace",""
"","html-keyboard-response","23","58315","0.0-2.0-8.0-0.0-0.0","2672","<div><div style=""""><a style=""white-space:pre-wrap;""> while a >= 4:
   a -= 5
   a += 1</a><a style=""""></a></div></div>","9","9","1","60","while a >= 4:
   a -= 5
   a += 1","9","0"
"","html-keyboard-response","24","59170","0.0-2.0-8.0-1.0-0.0","343","<div><div style=""""><a style=""white-space:pre-wrap;""> while a >= 4:
   a -= 5
   a += 1</a><a style=""""></a></div></div>","4","10","0","60","while a >= 4:
   a -= 5
   a += 1","10","1"
"","html-keyboard-response","26","65218","0.0-2.0-8.0-2.0-0.0","2028","<div><div style=""""><a style=""white-space:pre-wrap;""> while a >= 4:
   a -= 5
   a += 1</a><a style=""""></a></div></div>","5","5","1","60","while a >= 4:
   a -= 5
   a += 1","5","2"
"","html-keyboard-response","27","67090","0.0-2.0-8.0-3.0-0.0","1368","<div><div style=""""><a style=""white-space:pre-wrap;""> while a >= 4:
   a -= 5
   a += 1</a><a style=""""></a></div></div>","6","6","1","60","while a >= 4:
   a -= 5
   a += 1","6","3"
"","html-keyboard-response","28","67762","0.0-2.0-8.0-4.0-0.0","166","<div><div style=""""><a style=""white-space:pre-wrap;""> while a >= 4:
   a -= 5
   a += 1</a><a style=""""></a></div></div>","1","1","1","60","while a >= 4:
   a -= 5
   a += 1","1","4"
"","html-keyboard-response","29","68562","0.0-2.0-8.0-5.0-0.0","293","<div><div style=""""><a style=""white-space:pre-wrap;""> while a >= 4:
   a -= 5
   a += 1</a><a style=""""></a></div></div>","backspace","2","0","60","while a >= 4:
   a -= 5
   a += 1","2","5"
"","html-keyboard-response","31","72650","0.0-2.0-8.0-6.0-0.0","78","<div><div style=""""><a style=""white-space:pre-wrap;""> while a >= 4:
   a -= 5
   a += 1</a><a style=""""></a></div></div>","2","","0","","","backspace",""
"","html-keyboard-response","32","76665","0.0-2.0-8.0-6.0-1.0-0.0","null","<div><p style=""font-size:25px; color:green;"">end of loop<br>>>>>>></p>
						<div>Hit the ""end loop"" key to continue</div></div>","null","","","","","",""
"","html-keyboard-response","33","78090","0.0-2.0-8.0-6.1-0.1","1422","<div><div style=""""><a style=""white-space:pre-wrap;""> while a >= 4:
   a -= 5
   a += 1</a><a style=""""></a></div></div>","backspace","","1","","","backspace",""
"","html-keyboard-response","34","82243","0.0-2.0-9.0-0.0-0.0","3637","<div><div style=""""><a style=""white-space:pre-wrap;""> while a <= 15:
   a *= 3</a><a style=""""></a></div></div>","6","6","1","61","while a <= 15:
   a *= 3","6","0"
"","html-keyboard-response","35","84706","0.0-2.0-9.0-1.0-0.0","1954","<div><div style=""""><a style=""white-space:pre-wrap;""> while a <= 15:
   a *= 3</a><a style=""""></a></div></div>","18","18","1","61","while a <= 15:
   a *= 3","18","1"
"","html-keyboard-response","36","85466","0.0-2.0-9.0-2.0-0.0","247","<div><div style=""""><a style=""white-space:pre-wrap;""> while a <= 15:
   a *= 3</a><a style=""""></a></div></div>","backspace","","1","","","backspace",""
"","html-keyboard-response","37","88394","0.0-2.0-10.0-0.0-0.0","2422","<div><div style=""""><a style=""white-space:pre-wrap;""> while a >= 11:
   a /= 3
   a *= 2</a><a style=""""></a></div></div>","6","6","1","62","while a >= 11:
   a /= 3
   a *= 2","6","0"
"","html-keyboard-response","38","89970","0.0-2.0-10.0-1.0-0.0","1074","<div><div style=""""><a style=""white-space:pre-wrap;""> while a >= 11:
   a /= 3
   a *= 2</a><a style=""""></a></div></div>","12","12","1","62","while a >= 11:
   a /= 3
   a *= 2","12","1"
"","html-keyboard-response","39","94027","0.0-2.0-10.0-2.0-0.0","3551","<div><div style=""""><a style=""white-space:pre-wrap;""> while a >= 11:
   a /= 3
   a *= 2</a><a style=""""></a></div></div>","4","4","1","62","while a >= 11:
   a /= 3
   a *= 2","4","2"
"","html-keyboard-response","40","94658","0.0-2.0-10.0-3.0-0.0","127","<div><div style=""""><a style=""white-space:pre-wrap;""> while a >= 11:
   a /= 3
   a *= 2</a><a style=""""></a></div></div>","8","8","1","62","while a >= 11:
   a /= 3
   a *= 2","8","3"
"","html-keyboard-response","41","95457","0.0-2.0-10.0-4.0-0.0","289","<div><div style=""""><a style=""white-space:pre-wrap;""> while a >= 11:
   a /= 3
   a *= 2</a><a style=""""></a></div></div>","backspace","","1","","","backspace",""
"","html-keyboard-response","42","97722","0.0-2.0-11.0-0.0-0.0","1762","<div><div style=""""><a style=""white-space:pre-wrap;""> for i in [1, 2, 3]:
   a += 4</a><a style=""""></a></div></div>","12","12","1","63","for i in [1, 2, 3]:
   a += 4","12","0"
"","html-keyboard-response","43","98466","0.0-2.0-11.0-1.0-0.0","239","<div><div style=""""><a style=""white-space:pre-wrap;""> for i in [1, 2, 3]:
   a += 4</a><a style=""""></a></div></div>","16","16","1","63","for i in [1, 2, 3]:
   a += 4","16","1"
"","html-keyboard-response","44","99122","0.0-2.0-11.0-2.0-0.0","145","<div><div style=""""><a style=""white-space:pre-wrap;""> for i in [1, 2, 3]:
   a += 4</a><a style=""""></a></div></div>","20","20","1","63","for i in [1, 2, 3]:
   a += 4","20","2"
"","html-keyboard-response","45","99730","0.0-2.0-11.0-3.0-0.0","101","<div><div style=""""><a style=""white-space:pre-wrap;""> for i in [1, 2, 3]:
   a += 4</a><a style=""""></a></div></div>","backspace","","1","","","backspace",""
"","html-keyboard-response","46","101354","0.0-3.0-1.0","1116","<p style=""font-size: 25px;"">Please press space to start the next program<br>>>>>>></p>"," ","","","","","",""
"","html-keyboard-response","47","102362","0.0-3.0-2.0","1006","<div><div style="" font-size:25px; color:green;""><a style=""white-space:pre-wrap;""> a = 8</a><a style=""""></a></div></div>","","null","","46","a = 8","",""
"","html-keyboard-response","48","105106","0.0-3.0-4.0-0.0-0.0","2228","<div><div style=""""><a style=""white-space:pre-wrap;""> while a <= 17:
   a -= 2
   a += 6</a><a style=""""></a></div></div>","6","6","1","47","while a <= 17:
   a -= 2
   a += 6","6","0"
"","html-keyboard-response","49","106538","0.0-3.0-4.0-1.0-0.0","924","<div><div style=""""><a style=""white-space:pre-wrap;""> while a <= 17:
   a -= 2
   a += 6</a><a style=""""></a></div></div>","12","12","1","47","while a <= 17:
   a -= 2
   a += 6","12","1"
"","html-keyboard-response","50","108730","0.0-3.0-4.0-2.0-0.0","1680","<div><div style=""""><a style=""white-space:pre-wrap;""> while a <= 17:
   a -= 2
   a += 6</a><a style=""""></a></div></div>","10","10","1","47","while a <= 17:
   a -= 2
   a += 6","10","2"
"","html-keyboard-response","51","109842","0.0-3.0-4.0-3.0-0.0","605","<div><div style=""""><a style=""white-space:pre-wrap;""> while a <= 17:
   a -= 2
   a += 6</a><a style=""""></a></div></div>","16","16","1","47","while a <= 17:
   a -= 2
   a += 6","16","3"
"","html-keyboard-response","52","111034","0.0-3.0-4.0-4.0-0.0","686","<div><div style=""""><a style=""white-space:pre-wrap;""> while a <= 17:
   a -= 2
   a += 6</a><a style=""""></a></div></div>","14","14","1","47","while a <= 17:
   a -= 2
   a += 6","14","4"
"","html-keyboard-response","53","111802","0.0-3.0-4.0-5.0-0.0","251","<div><div style=""""><a style=""white-space:pre-wrap;""> while a <= 17:
   a -= 2
   a += 6</a><a style=""""></a></div></div>","20","20","1","47","while a <= 17:
   a -= 2
   a += 6","20","5"
"","html-keyboard-response","54","112450","0.0-3.0-4.0-6.0-0.0","132","<div><div style=""""><a style=""white-space:pre-wrap;""> while a <= 17:
   a -= 2
   a += 6</a><a style=""""></a></div></div>","backspace","","1","","","backspace",""
"","html-keyboard-response","55","116443","0.0-3.0-5.0-0.0-0.0","3485","<div><div style=""""><a style=""white-space:pre-wrap;""> while a >= 8:
   a /= 2</a><a style=""""></a></div></div>","10","10","1","48","while a >= 8:
   a /= 2","10","0"
"","html-keyboard-response","56","117042","0.0-3.0-5.0-1.0-0.0","87","<div><div style=""""><a style=""white-space:pre-wrap;""> while a >= 8:
   a /= 2</a><a style=""""></a></div></div>","5","5","1","48","while a >= 8:
   a /= 2","5","1"
"","html-keyboard-response","57","117898","0.0-3.0-5.0-2.0-0.0","352","<div><div style=""""><a style=""white-space:pre-wrap;""> while a >= 8:
   a /= 2</a><a style=""""></a></div></div>","backspace","","1","","","backspace",""
"","html-keyboard-response","58","120794","0.0-3.0-6.0-0.0-0.0","2389","<div><div style=""""><a style=""white-space:pre-wrap;""> for i in [1, 2, 3]:
   a = round_up(a*1.5)</a><a style=""""></a></div></div>","8","8","1","49","for i in [1, 2, 3]:
   a = round_up(a*1.5)","8","0"
"","html-keyboard-response","59","122410","0.0-3.0-6.0-1.0-0.0","1103","<div><div style=""""><a style=""white-space:pre-wrap;""> for i in [1, 2, 3]:
   a = round_up(a*1.5)</a><a style=""""></a></div></div>","12","12","1","49","for i in [1, 2, 3]:
   a = round_up(a*1.5)","12","1"
"","html-keyboard-response","60","124658","0.0-3.0-6.0-2.0-0.0","1746","<div><div style=""""><a style=""white-space:pre-wrap;""> for i in [1, 2, 3]:
   a = round_up(a*1.5)</a><a style=""""></a></div></div>","18","18","1","49","for i in [1, 2, 3]:
   a = round_up(a*1.5)","18","2"
"","html-keyboard-response","61","125330","0.0-3.0-6.0-3.0-0.0","169","<div><div style=""""><a style=""white-space:pre-wrap;""> for i in [1, 2, 3]:
   a = round_up(a*1.5)</a><a style=""""></a></div></div>","backspace","","1","","","backspace",""
"","html-keyboard-response","62","129667","0.0-3.0-7.0-0.0-0.0","3820","<div><div style=""""><a style=""white-space:pre-wrap;""> while a >= 4:
   a = average(a,2)</a><a style=""""></a></div></div>","10","10","1","50","while a >= 4:
   a = average(a,2)","10","0"
"","html-keyboard-response","63","131274","0.0-3.0-7.0-1.0-0.0","1097","<div><div style=""""><a style=""white-space:pre-wrap;""> while a >= 4:
   a = average(a,2)</a><a style=""""></a></div></div>","6","6","1","50","while a >= 4:
   a = average(a,2)","6","1"
"","html-keyboard-response","64","132930","0.0-3.0-7.0-2.0-0.0","1148","<div><div style=""""><a style=""white-space:pre-wrap;""> while a >= 4:
   a = average(a,2)</a><a style=""""></a></div></div>","4","4","1","50","while a >= 4:
   a = average(a,2)","4","2"
"","html-keyboard-response","65","134034","0.0-3.0-7.0-3.0-0.0","593","<div><div style=""""><a style=""white-space:pre-wrap;""> while a >= 4:
   a = average(a,2)</a><a style=""""></a></div></div>","3","3","1","50","while a >= 4:
   a = average(a,2)","3","3"
"","html-keyboard-response","66","134714","0.0-3.0-7.0-4.0-0.0","163","<div><div style=""""><a style=""white-space:pre-wrap;""> while a >= 4:
   a = average(a,2)</a><a style=""""></a></div></div>","backspace","","1","","","backspace",""
"","html-keyboard-response","67","137746","0.0-3.0-8.0-0.0-0.0","2524","<div><div style=""""><a style=""white-space:pre-wrap;""> while a <= 5:
   a += 7
   a /= 2</a><a style=""""></a></div></div>","10","10","1","51","while a <= 5:
   a += 7
   a /= 2","10","0"
"","html-keyboard-response","68","138874","0.0-3.0-8.0-1.0-0.0","624","<div><div style=""""><a style=""white-space:pre-wrap;""> while a <= 5:
   a += 7
   a /= 2</a><a style=""""></a></div></div>","5","5","1","51","while a <= 5:
   a += 7
   a /= 2","5","1"
"","html-keyboard-response","69","141530","0.0-3.0-8.0-2.0-0.0","2152","<div><div style=""""><a style=""white-space:pre-wrap;""> while a <= 5:
   a += 7
   a /= 2</a><a style=""""></a></div></div>","12","12","1","51","while a <= 5:
   a += 7
   a /= 2","12","2"
"","html-keyboard-response","70","142874","0.0-3.0-8.0-3.0-0.0","841","<div><div style=""""><a style=""white-space:pre-wrap;""> while a <= 5:
   a += 7
   a /= 2</a><a style=""""></a></div></div>","6","6","1","51","while a <= 5:
   a += 7
   a /= 2","6","3"
"","html-keyboard-response","71","143562","0.0-3.0-8.0-4.0-0.0","184","<div><div style=""""><a style=""white-space:pre-wrap;""> while a <= 5:
   a += 7
   a /= 2</a><a style=""""></a></div></div>","backspace","","1","","","backspace",""
"","html-keyboard-response","72","146098","0.0-3.0-9.0-0.0-0.0","2018","<div><div style=""""><a style=""white-space:pre-wrap;""> for i in [1, 2, 3, 4]:
   a += 3</a><a style=""""></a></div></div>","9","9","1","52","for i in [1, 2, 3, 4]:
   a += 3","9","0"
"","html-keyboard-response","73","147122","0.0-3.0-9.0-1.0-0.0","510","<div><div style=""""><a style=""white-space:pre-wrap;""> for i in [1, 2, 3, 4]:
   a += 3</a><a style=""""></a></div></div>","12","12","1","52","for i in [1, 2, 3, 4]:
   a += 3","12","1"
"","html-keyboard-response","74","147826","0.0-3.0-9.0-2.0-0.0","202","<div><div style=""""><a style=""white-space:pre-wrap;""> for i in [1, 2, 3, 4]:
   a += 3</a><a style=""""></a></div></div>","15","15","1","52","for i in [1, 2, 3, 4]:
   a += 3","15","2"
"","html-keyboard-response","75","148674","0.0-3.0-9.0-3.0-0.0","336","<div><div style=""""><a style=""white-space:pre-wrap;""> for i in [1, 2, 3, 4]:
   a += 3</a><a style=""""></a></div></div>","18","18","1","52","for i in [1, 2, 3, 4]:
   a += 3","18","3"
"","html-keyboard-response","76","149306","0.0-3.0-9.0-4.0-0.0","122","<div><div style=""""><a style=""white-space:pre-wrap;""> for i in [1, 2, 3, 4]:
   a += 3</a><a style=""""></a></div></div>","backspace","","1","","","backspace",""
"","html-keyboard-response","77","152339","0.0-3.0-10.0-0.0-0.0","2521","<div><div style=""""><a style=""white-space:pre-wrap;""> while a >= 12:
   a /= 3
   a *= 2</a><a style=""""></a></div></div>","6","6","1","53","while a >= 12:
   a /= 3
   a *= 2","6","0"
"","html-keyboard-response","78","153722","0.0-3.0-10.0-1.0-0.0","875","<div><div style=""""><a style=""white-space:pre-wrap;""> while a >= 12:
   a /= 3
   a *= 2</a><a style=""""></a></div></div>","12","12","1","53","while a >= 12:
   a /= 3
   a *= 2","12","1"
"","html-keyboard-response","79","156986","0.0-3.0-10.0-2.0-0.0","2752","<div><div style=""""><a style=""white-space:pre-wrap;""> while a >= 12:
   a /= 3
   a *= 2</a><a style=""""></a></div></div>","4","4","1","53","while a >= 12:
   a /= 3
   a *= 2","4","2"
"","html-keyboard-response","80","157802","0.0-3.0-10.0-3.0-0.0","306","<div><div style=""""><a style=""white-space:pre-wrap;""> while a >= 12:
   a /= 3
   a *= 2</a><a style=""""></a></div></div>","8","8","1","53","while a >= 12:
   a /= 3
   a *= 2","8","3"
"","html-keyboard-response","81","158410","0.0-3.0-10.0-4.0-0.0","103","<div><div style=""""><a style=""white-space:pre-wrap;""> while a >= 12:
   a /= 3
   a *= 2</a><a style=""""></a></div></div>","backspace","","1","","","backspace",""
"","html-keyboard-response","82","161714","0.0-3.0-11.0-0.0-0.0","2791","<div><div style=""""><a style=""white-space:pre-wrap;""> while a >= 3:
   a *= 2
   a -= 9</a><a style=""""></a></div></div>","16","16","1","54","while a >= 3:
   a *= 2
   a -= 9","16","0"
"","html-keyboard-response","83","163218","0.0-3.0-11.0-1.0-0.0","997","<div><div style=""""><a style=""white-space:pre-wrap;""> while a >= 3:
   a *= 2
   a -= 9</a><a style=""""></a></div></div>","7","7","1","54","while a >= 3:
   a *= 2
   a -= 9","7","1"
"","html-keyboard-response","84","164658","0.0-3.0-11.0-2.0-0.0","924","<div><div style=""""><a style=""white-space:pre-wrap;""> while a >= 3:
   a *= 2
   a -= 9</a><a style=""""></a></div></div>","14","14","1","54","while a >= 3:
   a *= 2
   a -= 9","14","2"
"","html-keyboard-response","85","166722","0.0-3.0-11.0-3.0-0.0","1550","<div><div style=""""><a style=""white-space:pre-wrap;""> while a >= 3:
   a *= 2
   a -= 9</a><a style=""""></a></div></div>","5","5","1","54","while a >= 3:
   a *= 2
   a -= 9","5","3"
"","html-keyboard-response","86","168290","0.0-3.0-11.0-4.0-0.0","1058","<div><div style=""""><a style=""white-space:pre-wrap;""> while a >= 3:
   a *= 2
   a -= 9</a><a style=""""></a></div></div>","10","10","1","54","while a >= 3:
   a *= 2
   a -= 9","10","4"
"","html-keyboard-response","87","169018","0.0-3.0-11.0-5.0-0.0","220","<div><div style=""""><a style=""white-space:pre-wrap;""> while a >= 3:
   a *= 2
   a -= 9</a><a style=""""></a></div></div>","1","1","1","54","while a >= 3:
   a *= 2
   a -= 9","1","5"
"","html-keyboard-response","88","169770","0.0-3.0-11.0-6.0-0.0","238","<div><div style=""""><a style=""white-space:pre-wrap;""> while a >= 3:
   a *= 2
   a -= 9</a><a style=""""></a></div></div>","backspace","","1","","","backspace",""
"","html-keyboard-response","89","171026","0.0-4.0-1.0","742","<p style=""font-size: 25px;"">Please press space to start the next program<br>>>>>>></p>"," ","","","","","",""
"","html-keyboard-response","90","172458","0.0-4.0-2.0","1430","<div><div style="" font-size:25px; color:green;""><a style=""white-space:pre-wrap;""> a = 9</a><a style=""""></a></div></div>","","null","","100","a = 9","",""
"","html-keyboard-response","91","174939","0.0-4.0-4.0-0.0-0.0","1976","<div><div style=""""><a style=""white-space:pre-wrap;""> for i in [1, 2]:
   a /= 3</a><a style=""""></a></div></div>","3","3","1","101","for i in [1, 2]:
   a /= 3","3","0"
"","html-keyboard-response","92","175610","0.0-4.0-4.0-1.0-0.0","157","<div><div style=""""><a style=""white-space:pre-wrap;""> for i in [1, 2]:
   a /= 3</a><a style=""""></a></div></div>","1","1","1","101","for i in [1, 2]:
   a /= 3","1","1"
"","html-keyboard-response","93","176298","0.0-4.0-4.0-2.0-0.0","176","<div><div style=""""><a style=""white-space:pre-wrap;""> for i in [1, 2]:
   a /= 3</a><a style=""""></a></div></div>","backspace","","1","","","backspace",""
"","html-keyboard-response","94","178370","0.0-4.0-5.0-0.0-0.0","1560","<div><div style=""""><a style=""white-space:pre-wrap;""> for i in [1, 2, 3]:
   a += 6</a><a style=""""></a></div></div>","7","7","1","102","for i in [1, 2, 3]:
   a += 6","7","0"
"","html-keyboard-response","95","179626","0.0-4.0-5.0-1.0-0.0","742","<div><div style=""""><a style=""white-space:pre-wrap;""> for i in [1, 2, 3]:
   a += 6</a><a style=""""></a></div></div>","13","13","1","102","for i in [1, 2, 3]:
   a += 6","13","1"
"","html-keyboard-response","96","182890","0.0-4.0-5.0-2.0-0.0","2757","<div><div style=""""><a style=""white-space:pre-wrap;""> for i in [1, 2, 3]:
   a += 6</a><a style=""""></a></div></div>","19","19","1","102","for i in [1, 2, 3]:
   a += 6","19","2"
"","html-keyboard-response","97","184442","0.0-4.0-5.0-3.0-0.0","1035","<div><div style=""""><a style=""white-space:pre-wrap;""> for i in [1, 2, 3]:
   a += 6</a><a style=""""></a></div></div>","backspace","","1","","","backspace",""
"","html-keyboard-response","98","186322","0.0-4.0-6.0-0.0-0.0","1371","<div><div style=""""><a style=""white-space:pre-wrap;""> while a >= 10:
   a += 1
   a -= 8</a><a style=""""></a></div></div>","20","20","1","103","while a >= 10:
   a += 1
   a -= 8","20","0"
"","html-keyboard-response","99","187562","0.0-4.0-6.0-1.0-0.0","730","<div><div style=""""><a style=""white-space:pre-wrap;""> while a >= 10:
   a += 1
   a -= 8</a><a style=""""></a></div></div>","12","12","1","103","while a >= 10:
   a += 1
   a -= 8","12","1"
"","html-keyboard-response","100","188962","0.0-4.0-6.0-2.0-0.0","883","<div><div style=""""><a style=""white-space:pre-wrap;""> while a >= 10:
   a += 1
   a -= 8</a><a style=""""></a></div></div>","13","13","1","103","while a >= 10:
   a += 1
   a -= 8","13","2"
"","html-keyboard-response","101","190977","0.0-4.0-6.0-3.0-0.0","1507","<div><div style=""""><a style=""white-space:pre-wrap;""> while a >= 10:
   a += 1
   a -= 8</a><a style=""""></a></div></div>","5","5","1","103","while a >= 10:
   a += 1
   a -= 8","5","3"
"","html-keyboard-response","102","193018","0.0-4.0-6.0-4.0-0.0","1535","<div><div style=""""><a style=""white-space:pre-wrap;""> while a >= 10:
   a += 1
   a -= 8</a><a style=""""></a></div></div>","6","","0","","","backspace",""
"","html-keyboard-response","103","197033","0.0-4.0-6.0-4.0-1.0-0.0","null","<div><p style=""font-size:25px; color:green;"">end of loop<br>>>>>>></p>
						<div>Hit the ""end loop"" key to continue</div></div>","null","","","","","",""
"","html-keyboard-response","104","197810","0.0-4.0-6.0-4.1-0.1","775","<div><div style=""""><a style=""white-space:pre-wrap;""> while a >= 10:
   a += 1
   a -= 8</a><a style=""""></a></div></div>","backspace","","1","","","backspace",""
"","html-keyboard-response","105","200250","0.0-4.0-7.0-0.0-0.0","1928","<div><div style=""""><a style=""white-space:pre-wrap;""> while a <= 6:
   a *= 3
   a -= 9</a><a style=""""></a></div></div>","15","15","1","104","while a <= 6:
   a *= 3
   a -= 9","15","0"
"","html-keyboard-response","106","201530","0.0-4.0-7.0-1.0-0.0","771","<div><div style=""""><a style=""white-space:pre-wrap;""> while a <= 6:
   a *= 3
   a -= 9</a><a style=""""></a></div></div>","6","6","1","104","while a <= 6:
   a *= 3
   a -= 9","6","1"
"","html-keyboard-response","107","203402","0.0-4.0-7.0-2.0-0.0","1364","<div><div style=""""><a style=""white-space:pre-wrap;""> while a <= 6:
   a *= 3
   a -= 9</a><a style=""""></a></div></div>","18","18","1","104","while a <= 6:
   a *= 3
   a -= 9","18","2"
"","html-keyboard-response","108","204978","0.0-4.0-7.0-3.0-0.0","1061","<div><div style=""""><a style=""white-space:pre-wrap;""> while a <= 6:
   a *= 3
   a -= 9</a><a style=""""></a></div></div>","9","9","1","104","while a <= 6:
   a *= 3
   a -= 9","9","3"
"","html-keyboard-response","109","205498","0.0-4.0-7.0-4.0-0.0","7","<div><div style=""""><a style=""white-space:pre-wrap;""> while a <= 6:
   a *= 3
   a -= 9</a><a style=""""></a></div></div>","backspace","","1","","","backspace",""
"","html-keyboard-response","110","207882","0.0-4.0-8.0-0.0-0.0","1877","<div><div style=""""><a style=""white-space:pre-wrap;""> for i in [1, 2, 3]:
   a = average(a, 1)</a><a style=""""></a></div></div>","5","5","1","105","for i in [1, 2, 3]:
   a = average(a, 1)","5","0"
"","html-keyboard-response","111","209034","0.0-4.0-8.0-1.0-0.0","649","<div><div style=""""><a style=""white-space:pre-wrap;""> for i in [1, 2, 3]:
   a = average(a, 1)</a><a style=""""></a></div></div>","3","3","1","105","for i in [1, 2, 3]:
   a = average(a, 1)","3","1"
"","html-keyboard-response","112","209850","0.0-4.0-8.0-2.0-0.0","310","<div><div style=""""><a style=""white-space:pre-wrap;""> for i in [1, 2, 3]:
   a = average(a, 1)</a><a style=""""></a></div></div>","2","2","1","105","for i in [1, 2, 3]:
   a = average(a, 1)","2","2"
"","html-keyboard-response","113","210466","0.0-4.0-8.0-3.0-0.0","100","<div><div style=""""><a style=""white-space:pre-wrap;""> for i in [1, 2, 3]:
   a = average(a, 1)</a><a style=""""></a></div></div>","backspace","","1","","","backspace",""
"","html-keyboard-response","114","213162","0.0-4.0-9.0-0.0-0.0","2186","<div><div style=""""><a style=""white-space:pre-wrap;""> while a <= 9:
   a -= 1
   a *= 5</a><a style=""""></a></div></div>","1","1","1","106","while a <= 9:
   a -= 1
   a *= 5","1","0"
"","html-keyboard-response","115","214042","0.0-4.0-9.0-1.0-0.0","364","<div><div style=""""><a style=""white-space:pre-wrap;""> while a <= 9:
   a -= 1
   a *= 5</a><a style=""""></a></div></div>","5","5","1","106","while a <= 9:
   a -= 1
   a *= 5","5","1"
"","html-keyboard-response","116","215257","0.0-4.0-9.0-2.0-0.0","711","<div><div style=""""><a style=""white-space:pre-wrap;""> while a <= 9:
   a -= 1
   a *= 5</a><a style=""""></a></div></div>","4","4","1","106","while a <= 9:
   a -= 1
   a *= 5","4","2"
"","html-keyboard-response","117","216146","0.0-4.0-9.0-3.0-0.0","384","<div><div style=""""><a style=""white-space:pre-wrap;""> while a <= 9:
   a -= 1
   a *= 5</a><a style=""""></a></div></div>","20","20","1","106","while a <= 9:
   a -= 1
   a *= 5","20","3"
"","html-keyboard-response","118","216826","0.0-4.0-9.0-4.0-0.0","171","<div><div style=""""><a style=""white-space:pre-wrap;""> while a <= 9:
   a -= 1
   a *= 5</a><a style=""""></a></div></div>","backspace","","1","","","backspace",""
"","html-keyboard-response","119","220650","0.0-4.0-10.0-0.0-0.0","3310","<div><div style=""""><a style=""white-space:pre-wrap;""> while a >= 12:
   a -= 3</a><a style=""""></a></div></div>","17","17","1","107","while a >= 12:
   a -= 3","17","0"
"","html-keyboard-response","120","221554","0.0-4.0-10.0-1.0-0.0","401","<div><div style=""""><a style=""white-space:pre-wrap;""> while a >= 12:
   a -= 3</a><a style=""""></a></div></div>","14","14","1","107","while a >= 12:
   a -= 3","14","1"
"","html-keyboard-response","121","222282","0.0-4.0-10.0-2.0-0.0","211","<div><div style=""""><a style=""white-space:pre-wrap;""> while a >= 12:
   a -= 3</a><a style=""""></a></div></div>","11","11","1","107","while a >= 12:
   a -= 3","11","2"
"","html-keyboard-response","122","222898","0.0-4.0-10.0-3.0-0.0","111","<div><div style=""""><a style=""white-space:pre-wrap;""> while a >= 12:
   a -= 3</a><a style=""""></a></div></div>","backspace","","1","","","backspace",""
"","html-keyboard-response","123","226218","0.0-4.0-11.0-0.0-0.0","2810","<div><div style=""""><a style=""white-space:pre-wrap;""> for i in [1, 2]:
   a -= 5</a><a style=""""></a></div></div>","6","6","1","108","for i in [1, 2]:
   a -= 5","6","0"
"","html-keyboard-response","124","226794","0.0-4.0-11.0-1.0-0.0","68","<div><div style=""""><a style=""white-space:pre-wrap;""> for i in [1, 2]:
   a -= 5</a><a style=""""></a></div></div>","1","1","1","108","for i in [1, 2]:
   a -= 5","1","1"
"","html-keyboard-response","125","227354","0.0-4.0-11.0-2.0-0.0","53","<div><div style=""""><a style=""white-space:pre-wrap;""> for i in [1, 2]:
   a -= 5</a><a style=""""></a></div></div>","backspace","","1","","","backspace",""
"","html-keyboard-response","126","228706","0.0-5.0-1.0","841","<p style=""font-size: 25px;"">Please press space to start the next program<br>>>>>>></p>"," ","","","","","",""
"","html-keyboard-response","127","229802","0.0-5.0-2.0","1094","<div><div style="" font-size:25px; color:green;""><a style=""white-space:pre-wrap;""> a = 18</a><a style=""""></a></div></div>","","null","","28","a = 18","",""
"","html-keyboard-response","128","232386","0.0-5.0-4.0-0.0-0.0","2073","<div><div style=""""><a style=""white-space:pre-wrap;""> for i in [1, 2]:
   a /= 3
   a *= 2</a><a style=""""></a></div></div>","6","6","1","29","for i in [1, 2]:
   a /= 3
   a *= 2","6","0"
"","html-keyboard-response","129","233490","0.0-5.0-4.0-1.0-0.0","597","<div><div style=""""><a style=""white-space:pre-wrap;""> for i in [1, 2]:
   a /= 3
   a *= 2</a><a style=""""></a></div></div>","12","12","1","29","for i in [1, 2]:
   a /= 3
   a *= 2","12","1"
"","html-keyboard-response","130","235682","0.0-5.0-4.0-2.0-0.0","1681","<div><div style=""""><a style=""white-space:pre-wrap;""> for i in [1, 2]:
   a /= 3
   a *= 2</a><a style=""""></a></div></div>","4","4","1","29","for i in [1, 2]:
   a /= 3
   a *= 2","4","2"
"","html-keyboard-response","131","236354","0.0-5.0-4.0-3.0-0.0","167","<div><div style=""""><a style=""white-space:pre-wrap;""> for i in [1, 2]:
   a /= 3
   a *= 2</a><a style=""""></a></div></div>","8","8","1","29","for i in [1, 2]:
   a /= 3
   a *= 2","8","3"
"","html-keyboard-response","132","238314","0.0-5.0-4.0-4.0-0.0","1457","<div><div style=""""><a style=""white-space:pre-wrap;""> for i in [1, 2]:
   a /= 3
   a *= 2</a><a style=""""></a></div></div>","backspace","","1","","","backspace",""
"","html-keyboard-response","133","240291","0.0-5.0-5.0-0.0-0.0","1465","<div><div style=""""><a style=""white-space:pre-wrap;""> while a >= 2:
   a /= 2</a><a style=""""></a></div></div>","4","4","1","30","while a >= 2:
   a /= 2","4","0"
"","html-keyboard-response","134","241155","0.0-5.0-5.0-1.0-0.0","360","<div><div style=""""><a style=""white-space:pre-wrap;""> while a >= 2:
   a /= 2</a><a style=""""></a></div></div>","2","2","1","30","while a >= 2:
   a /= 2","2","1"
"","html-keyboard-response","135","241971","0.0-5.0-5.0-2.0-0.0","303","<div><div style=""""><a style=""white-space:pre-wrap;""> while a >= 2:
   a /= 2</a><a style=""""></a></div></div>","1","1","1","30","while a >= 2:
   a /= 2","1","2"
"","html-keyboard-response","136","242667","0.0-5.0-5.0-3.0-0.0","190","<div><div style=""""><a style=""white-space:pre-wrap;""> while a >= 2:
   a /= 2</a><a style=""""></a></div></div>","backspace","","1","","","backspace",""
"","html-keyboard-response","137","244763","0.0-5.0-6.0-0.0-0.0","1579","<div><div style=""""><a style=""white-space:pre-wrap;""> while a <= 7:
   a += 2</a><a style=""""></a></div></div>","3","3","1","31","while a <= 7:
   a += 2","3","0"
"","html-keyboard-response","138","245955","0.0-5.0-6.0-1.0-0.0","679","<div><div style=""""><a style=""white-space:pre-wrap;""> while a <= 7:
   a += 2</a><a style=""""></a></div></div>","5","5","1","31","while a <= 7:
   a += 2","5","1"
"","html-keyboard-response","139","246747","0.0-5.0-6.0-2.0-0.0","285","<div><div style=""""><a style=""white-space:pre-wrap;""> while a <= 7:
   a += 2</a><a style=""""></a></div></div>","7","7","1","31","while a <= 7:
   a += 2","7","2"
"","html-keyboard-response","140","247459","0.0-5.0-6.0-3.0-0.0","203","<div><div style=""""><a style=""white-space:pre-wrap;""> while a <= 7:
   a += 2</a><a style=""""></a></div></div>","9","9","1","31","while a <= 7:
   a += 2","9","3"
"","html-keyboard-response","141","248235","0.0-5.0-6.0-4.0-0.0","262","<div><div style=""""><a style=""white-space:pre-wrap;""> while a <= 7:
   a += 2</a><a style=""""></a></div></div>","backspace","","1","","","backspace",""
"","html-keyboard-response","142","254003","0.0-5.0-7.0-0.0-0.0","5265","<div><div style=""""><a style=""white-space:pre-wrap;""> while a >= 6:
   a += 9
   a /= 3</a><a style=""""></a></div></div>","18","18","1","32","while a >= 6:
   a += 9
   a /= 3","18","0"
"","html-keyboard-response","143","254963","0.0-5.0-7.0-1.0-0.0","446","<div><div style=""""><a style=""white-space:pre-wrap;""> while a >= 6:
   a += 9
   a /= 3</a><a style=""""></a></div></div>","6","6","1","32","while a >= 6:
   a += 9
   a /= 3","6","1"
"","html-keyboard-response","144","255835","0.0-5.0-7.0-2.0-0.0","365","<div><div style=""""><a style=""white-space:pre-wrap;""> while a >= 6:
   a += 9
   a /= 3</a><a style=""""></a></div></div>","15","15","1","32","while a >= 6:
   a += 9
   a /= 3","15","2"
"","html-keyboard-response","145","257355","0.0-5.0-7.0-3.0-0.0","1011","<div><div style=""""><a style=""white-space:pre-wrap;""> while a >= 6:
   a += 9
   a /= 3</a><a style=""""></a></div></div>","5","5","1","32","while a >= 6:
   a += 9
   a /= 3","5","3"
"","html-keyboard-response","146","257955","0.0-5.0-7.0-4.0-0.0","87","<div><div style=""""><a style=""white-space:pre-wrap;""> while a >= 6:
   a += 9
   a /= 3</a><a style=""""></a></div></div>","backspace","","1","","","backspace",""
"","html-keyboard-response","147","261722","0.0-5.0-8.0-0.0-0.0","3261","<div><div style=""""><a style=""white-space:pre-wrap;""> while a <= 11:
   a = round_down(a*1.5)</a><a style=""""></a></div></div>","7","7","1","33","while a <= 11:
   a = round_down(a*1.5)","7","0"
"","html-keyboard-response","148","263659","0.0-5.0-8.0-1.0-0.0","1428","<div><div style=""""><a style=""white-space:pre-wrap;""> while a <= 11:
   a = round_down(a*1.5)</a><a style=""""></a></div></div>","10","10","1","33","while a <= 11:
   a = round_down(a*1.5)","10","1"
"","html-keyboard-response","149","265123","0.0-5.0-8.0-2.0-0.0","961","<div><div style=""""><a style=""white-space:pre-wrap;""> while a <= 11:
   a = round_down(a*1.5)</a><a style=""""></a></div></div>","15","15","1","33","while a <= 11:
   a = round_down(a*1.5)","15","2"
"","html-keyboard-response","150","265857","0.0-5.0-8.0-3.0-0.0","226","<div><div style=""""><a style=""white-space:pre-wrap;""> while a <= 11:
   a = round_down(a*1.5)</a><a style=""""></a></div></div>","backspace","","1","","","backspace",""
"","html-keyboard-response","151","269155","0.0-5.0-9.0-0.0-0.0","2794","<div><div style=""""><a style=""white-space:pre-wrap;""> for i in [1, 2]:
   a = average(a,3)</a><a style=""""></a></div></div>","9","9","1","34","for i in [1, 2]:
   a = average(a,3)","9","0"
"","html-keyboard-response","152","270123","0.0-5.0-9.0-1.0-0.0","459","<div><div style=""""><a style=""white-space:pre-wrap;""> for i in [1, 2]:
   a = average(a,3)</a><a style=""""></a></div></div>","6","6","1","34","for i in [1, 2]:
   a = average(a,3)","6","1"
"","html-keyboard-response","153","270883","0.0-5.0-9.0-2.0-0.0","250","<div><div style=""""><a style=""white-space:pre-wrap;""> for i in [1, 2]:
   a = average(a,3)</a><a style=""""></a></div></div>","backspace","","1","","","backspace",""
"","html-keyboard-response","154","273011","0.0-5.0-10.0-0.0-0.0","1620","<div><div style=""""><a style=""white-space:pre-wrap;""> for i in [1, 2, 3]:
   a *= 2
   a -= 5</a><a style=""""></a></div></div>","12","12","1","35","for i in [1, 2, 3]:
   a *= 2
   a -= 5","12","0"
"","html-keyboard-response","155","274187","0.0-5.0-10.0-1.0-0.0","671","<div><div style=""""><a style=""white-space:pre-wrap;""> for i in [1, 2, 3]:
   a *= 2
   a -= 5</a><a style=""""></a></div></div>","7","7","1","35","for i in [1, 2, 3]:
   a *= 2
   a -= 5","7","1"
"","html-keyboard-response","156","276882","0.0-5.0-10.0-2.0-0.0","2179","<div><div style=""""><a style=""white-space:pre-wrap;""> for i in [1, 2, 3]:
   a *= 2
   a -= 5</a><a style=""""></a></div></div>","14","14","1","35","for i in [1, 2, 3]:
   a *= 2
   a -= 5","14","2"
"","html-keyboard-response","157","278731","0.0-5.0-10.0-3.0-0.0","1346","<div><div style=""""><a style=""white-space:pre-wrap;""> for i in [1, 2, 3]:
   a *= 2
   a -= 5</a><a style=""""></a></div></div>","9","9","1","35","for i in [1, 2, 3]:
   a *= 2
   a -= 5","9","3"
"","html-keyboard-response","158","279899","0.0-5.0-10.0-4.0-0.0","657","<div><div style=""""><a style=""white-space:pre-wrap;""> for i in [1, 2, 3]:
   a *= 2
   a -= 5</a><a style=""""></a></div></div>","18","18","1","35","for i in [1, 2, 3]:
   a *= 2
   a -= 5","18","4"
"","html-keyboard-response","159","281579","0.0-5.0-10.0-5.0-0.0","1168","<div><div style=""""><a style=""white-space:pre-wrap;""> for i in [1, 2, 3]:
   a *= 2
   a -= 5</a><a style=""""></a></div></div>","13","13","1","35","for i in [1, 2, 3]:
   a *= 2
   a -= 5","13","5"
"","html-keyboard-response","160","282211","0.0-5.0-10.0-6.0-0.0","115","<div><div style=""""><a style=""white-space:pre-wrap;""> for i in [1, 2, 3]:
   a *= 2
   a -= 5</a><a style=""""></a></div></div>","backspace","","1","","","backspace",""
"","html-keyboard-response","161","283988","0.0-5.0-11.0-0.0-0.0","1270","<div><div style=""""><a style=""white-space:pre-wrap;""> while a >= 6:
   a += 4
   a -= 7</a><a style=""""></a></div></div>","17","17","1","36","while a >= 6:
   a += 4
   a -= 7","17","0"
"","html-keyboard-response","162","285395","0.0-5.0-11.0-1.0-0.0","895","<div><div style=""""><a style=""white-space:pre-wrap;""> while a >= 6:
   a += 4
   a -= 7</a><a style=""""></a></div></div>","10","10","1","36","while a >= 6:
   a += 4
   a -= 7","10","1"
"","html-keyboard-response","163","286707","0.0-5.0-11.0-2.0-0.0","802","<div><div style=""""><a style=""white-space:pre-wrap;""> while a >= 6:
   a += 4
   a -= 7</a><a style=""""></a></div></div>","14","14","1","36","while a >= 6:
   a += 4
   a -= 7","14","2"
"","html-keyboard-response","164","288347","0.0-5.0-11.0-3.0-0.0","1130","<div><div style=""""><a style=""white-space:pre-wrap;""> while a >= 6:
   a += 4
   a -= 7</a><a style=""""></a></div></div>","7","7","1","36","while a >= 6:
   a += 4
   a -= 7","7","3"
"","html-keyboard-response","165","292275","0.0-5.0-11.0-4.0-0.0","3419","<div><div style=""""><a style=""white-space:pre-wrap;""> while a >= 6:
   a += 4
   a -= 7</a><a style=""""></a></div></div>","11","11","1","36","while a >= 6:
   a += 4
   a -= 7","11","4"
"","html-keyboard-response","166","293475","0.0-5.0-11.0-5.0-0.0","693","<div><div style=""""><a style=""white-space:pre-wrap;""> while a >= 6:
   a += 4
   a -= 7</a><a style=""""></a></div></div>","4","4","1","36","while a >= 6:
   a += 4
   a -= 7","4","5"
"","html-keyboard-response","167","294131","0.0-5.0-11.0-6.0-0.0","148","<div><div style=""""><a style=""white-space:pre-wrap;""> while a >= 6:
   a += 4
   a -= 7</a><a style=""""></a></div></div>","backspace","","1","","","backspace",""
"","html-keyboard-response","168","295675","0.0-6.0-1.0","1037","<p style=""font-size: 25px;"">Please press space to start the next program<br>>>>>>></p>"," ","","","","","",""
"","html-keyboard-response","169","296827","0.0-6.0-2.0","1151","<div><div style="" font-size:25px; color:green;""><a style=""white-space:pre-wrap;""> a = 7</a><a style=""""></a></div></div>","","null","","1","a = 7","",""
"","html-keyboard-response","170","300563","0.0-6.0-4.0-0.0-0.0","3220","<div><div style=""""><a style=""white-space:pre-wrap;""> for i in [1, 2]:
   a *= 2
   a -= 4</a><a style=""""></a></div></div>","14","14","1","2","for i in [1, 2]:
   a *= 2
   a -= 4","14","0"
"","html-keyboard-response","171","302410","0.0-6.0-4.0-1.0-0.0","1340","<div><div style=""""><a style=""white-space:pre-wrap;""> for i in [1, 2]:
   a *= 2
   a -= 4</a><a style=""""></a></div></div>","10","10","1","2","for i in [1, 2]:
   a *= 2
   a -= 4","10","1"
"","html-keyboard-response","172","304586","0.0-6.0-4.0-2.0-0.0","1662","<div><div style=""""><a style=""white-space:pre-wrap;""> for i in [1, 2]:
   a *= 2
   a -= 4</a><a style=""""></a></div></div>","20","20","1","2","for i in [1, 2]:
   a *= 2
   a -= 4","20","2"
"","html-keyboard-response","173","305490","0.0-6.0-4.0-3.0-0.0","396","<div><div style=""""><a style=""white-space:pre-wrap;""> for i in [1, 2]:
   a *= 2
   a -= 4</a><a style=""""></a></div></div>","16","16","1","2","for i in [1, 2]:
   a *= 2
   a -= 4","16","3"
"","html-keyboard-response","174","306010","0.0-6.0-4.0-4.0-0.0","4","<div><div style=""""><a style=""white-space:pre-wrap;""> for i in [1, 2]:
   a *= 2
   a -= 4</a><a style=""""></a></div></div>","backspace","","1","","","backspace",""
"","html-keyboard-response","175","308490","0.0-6.0-5.0-0.0-0.0","1970","<div><div style=""""><a style=""white-space:pre-wrap;""> for i in [1, 2, 3]:
   a /= 4
   a *= 2</a><a style=""""></a></div></div>","4","4","1","3","for i in [1, 2, 3]:
   a /= 4
   a *= 2","4","0"
"","html-keyboard-response","176","311059","0.0-6.0-5.0-1.0-0.0","2061","<div><div style=""""><a style=""white-space:pre-wrap;""> for i in [1, 2, 3]:
   a /= 4
   a *= 2</a><a style=""""></a></div></div>","8","8","1","3","for i in [1, 2, 3]:
   a /= 4
   a *= 2","8","1"
"","html-keyboard-response","177","312586","0.0-6.0-5.0-2.0-0.0","1016","<div><div style=""""><a style=""white-space:pre-wrap;""> for i in [1, 2, 3]:
   a /= 4
   a *= 2</a><a style=""""></a></div></div>","2","2","1","3","for i in [1, 2, 3]:
   a /= 4
   a *= 2","2","2"
"","html-keyboard-response","178","314266","0.0-6.0-5.0-3.0-0.0","1166","<div><div style=""""><a style=""white-space:pre-wrap;""> for i in [1, 2, 3]:
   a /= 4
   a *= 2</a><a style=""""></a></div></div>","4","4","1","3","for i in [1, 2, 3]:
   a /= 4
   a *= 2","4","3"
"","html-keyboard-response","179","315794","0.0-6.0-5.0-4.0-0.0","1023","<div><div style=""""><a style=""white-space:pre-wrap;""> for i in [1, 2, 3]:
   a /= 4
   a *= 2</a><a style=""""></a></div></div>","1","1","1","3","for i in [1, 2, 3]:
   a /= 4
   a *= 2","1","4"
"","html-keyboard-response","180","316498","0.0-6.0-5.0-5.0-0.0","187","<div><div style=""""><a style=""white-space:pre-wrap;""> for i in [1, 2, 3]:
   a /= 4
   a *= 2</a><a style=""""></a></div></div>","2","2","1","3","for i in [1, 2, 3]:
   a /= 4
   a *= 2","2","5"
"","html-keyboard-response","181","317146","0.0-6.0-5.0-6.0-0.0","134","<div><div style=""""><a style=""white-space:pre-wrap;""> for i in [1, 2, 3]:
   a /= 4
   a *= 2</a><a style=""""></a></div></div>","backspace","","1","","","backspace",""
"","html-keyboard-response","182","320298","0.0-6.0-6.0-0.0-0.0","2645","<div><div style=""""><a style=""white-space:pre-wrap;""> while a <= 6:
   a = round_up(a*2.5)</a><a style=""""></a></div></div>","5","5","1","4","while a <= 6:
   a = round_up(a*2.5)","5","0"
"","html-keyboard-response","183","323122","0.0-6.0-6.0-1.0-0.0","2316","<div><div style=""""><a style=""white-space:pre-wrap;""> while a <= 6:
   a = round_up(a*2.5)</a><a style=""""></a></div></div>","13","13","1","4","while a <= 6:
   a = round_up(a*2.5)","13","1"
"","html-keyboard-response","184","324714","0.0-6.0-6.0-2.0-0.0","1078","<div><div style=""""><a style=""white-space:pre-wrap;""> while a <= 6:
   a = round_up(a*2.5)</a><a style=""""></a></div></div>","backspace","","1","","","backspace",""
"","html-keyboard-response","185","328970","0.0-6.0-7.0-0.0-0.0","3745","<div><div style=""""><a style=""white-space:pre-wrap;""> for i in [1, 2, 3]:
   a = average(a,5)</a><a style=""""></a></div></div>","9","9","1","5","for i in [1, 2, 3]:
   a = average(a,5)","9","0"
"","html-keyboard-response","186","330378","0.0-6.0-7.0-1.0-0.0","906","<div><div style=""""><a style=""white-space:pre-wrap;""> for i in [1, 2, 3]:
   a = average(a,5)</a><a style=""""></a></div></div>","7","7","1","5","for i in [1, 2, 3]:
   a = average(a,5)","7","1"
"","html-keyboard-response","187","331602","0.0-6.0-7.0-2.0-0.0","710","<div><div style=""""><a style=""white-space:pre-wrap;""> for i in [1, 2, 3]:
   a = average(a,5)</a><a style=""""></a></div></div>","6","6","1","5","for i in [1, 2, 3]:
   a = average(a,5)","6","2"
"","html-keyboard-response","188","332842","0.0-6.0-7.0-3.0-0.0","724","<div><div style=""""><a style=""white-space:pre-wrap;""> for i in [1, 2, 3]:
   a = average(a,5)</a><a style=""""></a></div></div>","backspace","","1","","","backspace",""
"","html-keyboard-response","189","335858","0.0-6.0-8.0-0.0-0.0","2512","<div><div style=""""><a style=""white-space:pre-wrap;""> while a >= 4:
   a += 2
   a /= 2</a><a style=""""></a></div></div>","7","8","0","6","while a >= 4:
   a += 2
   a /= 2","8","0"
"","html-keyboard-response","191","340378","0.0-6.0-8.0-1.0-0.0","512","<div><div style=""""><a style=""white-space:pre-wrap;""> while a >= 4:
   a += 2
   a /= 2</a><a style=""""></a></div></div>","4","4","1","6","while a >= 4:
   a += 2
   a /= 2","4","1"
"","html-keyboard-response","192","343298","0.0-6.0-8.0-2.0-0.0","2405","<div><div style=""""><a style=""white-space:pre-wrap;""> while a >= 4:
   a += 2
   a /= 2</a><a style=""""></a></div></div>","6","6","1","6","while a >= 4:
   a += 2
   a /= 2","6","2"
"","html-keyboard-response","193","344210","0.0-6.0-8.0-3.0-0.0","395","<div><div style=""""><a style=""white-space:pre-wrap;""> while a >= 4:
   a += 2
   a /= 2</a><a style=""""></a></div></div>","3","3","1","6","while a >= 4:
   a += 2
   a /= 2","3","3"
"","html-keyboard-response","194","345274","0.0-6.0-8.0-4.0-0.0","556","<div><div style=""""><a style=""white-space:pre-wrap;""> while a >= 4:
   a += 2
   a /= 2</a><a style=""""></a></div></div>","backspace","","1","","","backspace",""
"","html-keyboard-response","195","347642","0.0-6.0-9.0-0.0-0.0","1865","<div><div style=""""><a style=""white-space:pre-wrap;""> while a <= 9:
   a *= 2</a><a style=""""></a></div></div>","6","6","1","7","while a <= 9:
   a *= 2","6","0"
"","html-keyboard-response","196","349786","0.0-6.0-9.0-1.0-0.0","1641","<div><div style=""""><a style=""white-space:pre-wrap;""> while a <= 9:
   a *= 2</a><a style=""""></a></div></div>","12","12","1","7","while a <= 9:
   a *= 2","12","1"
"","html-keyboard-response","197","351042","0.0-6.0-9.0-2.0-0.0","748","<div><div style=""""><a style=""white-space:pre-wrap;""> while a <= 9:
   a *= 2</a><a style=""""></a></div></div>","backspace","","1","","","backspace",""
"","html-keyboard-response","198","353026","0.0-6.0-10.0-0.0-0.0","1469","<div><div style=""""><a style=""white-space:pre-wrap;""> for i in [1, 2]:
   a += 6
   a -= 4</a><a style=""""></a></div></div>","18","18","1","8","for i in [1, 2]:
   a += 6
   a -= 4","18","0"
"","html-keyboard-response","199","354314","0.0-6.0-10.0-1.0-0.0","775","<div><div style=""""><a style=""white-space:pre-wrap;""> for i in [1, 2]:
   a += 6
   a -= 4</a><a style=""""></a></div></div>","14","14","1","8","for i in [1, 2]:
   a += 6
   a -= 4","14","1"
"","html-keyboard-response","200","356994","0.0-6.0-10.0-2.0-0.0","2166","<div><div style=""""><a style=""white-space:pre-wrap;""> for i in [1, 2]:
   a += 6
   a -= 4</a><a style=""""></a></div></div>","20","20","1","8","for i in [1, 2]:
   a += 6
   a -= 4","20","2"
"","html-keyboard-response","201","358058","0.0-6.0-10.0-3.0-0.0","560","<div><div style=""""><a style=""white-space:pre-wrap;""> for i in [1, 2]:
   a += 6
   a -= 4</a><a style=""""></a></div></div>","14","16","0","8","for i in [1, 2]:
   a += 6
   a -= 4","16","3"
"","html-keyboard-response","203","362705","0.0-6.0-10.0-4.0-0.0","632","<div><div style=""""><a style=""white-space:pre-wrap;""> for i in [1, 2]:
   a += 6
   a -= 4</a><a style=""""></a></div></div>","backspace","","1","","","backspace",""
"","html-keyboard-response","204","366010","0.0-6.0-11.0-0.0-0.0","2788","<div><div style=""""><a style=""white-space:pre-wrap;""> for i in [1, 2, 3, 4]:
   a -= 3</a><a style=""""></a></div></div>","11","13","0","9","for i in [1, 2, 3, 4]:
   a -= 3","13","0"
"","html-keyboard-response","206","370218","0.0-6.0-11.0-1.0-0.0","190","<div><div style=""""><a style=""white-space:pre-wrap;""> for i in [1, 2, 3, 4]:
   a -= 3</a><a style=""""></a></div></div>","10","10","1","9","for i in [1, 2, 3, 4]:
   a -= 3","10","1"
"","html-keyboard-response","207","371306","0.0-6.0-11.0-2.0-0.0","576","<div><div style=""""><a style=""white-space:pre-wrap;""> for i in [1, 2, 3, 4]:
   a -= 3</a><a style=""""></a></div></div>","7","7","1","9","for i in [1, 2, 3, 4]:
   a -= 3","7","2"
"","html-keyboard-response","208","371994","0.0-6.0-11.0-3.0-0.0","175","<div><div style=""""><a style=""white-space:pre-wrap;""> for i in [1, 2, 3, 4]:
   a -= 3</a><a style=""""></a></div></div>","4","4","1","9","for i in [1, 2, 3, 4]:
   a -= 3","4","3"
"","html-keyboard-response","209","373194","0.0-6.0-11.0-4.0-0.0","686","<div><div style=""""><a style=""white-space:pre-wrap;""> for i in [1, 2, 3, 4]:
   a -= 3</a><a style=""""></a></div></div>","backspace","","1","","","backspace",""
"","html-keyboard-response","210","408034","0.0-7.0-0.0-0.0","34324","<p style=""position:absolute; top:30%; font-size:25px; color:green;"" >Take a short break now</p>"," ","","","","","",""
"","html-keyboard-response","211","409066","0.0-7.0-1.0","1030","<p style=""font-size: 25px;"">Please press space to start the next program<br>>>>>>></p>"," ","","","","","",""
"","html-keyboard-response","212","409538","0.0-7.0-2.0","470","<div><div style="" font-size:25px; color:green;""><a style=""white-space:pre-wrap;""> a = 18</a><a style=""""></a></div></div>","","null","","19","a = 18","",""
"","html-keyboard-response","213","411522","0.0-7.0-4.0-0.0-0.0","1472","<div><div style=""""><a style=""white-space:pre-wrap;""> while a >= 10:
   a /= 3
   a *= 2</a><a style=""""></a></div></div>","6","6","1","20","while a >= 10:
   a /= 3
   a *= 2","6","0"
"","html-keyboard-response","214","413010","0.0-7.0-4.0-1.0-0.0","971","<div><div style=""""><a style=""white-space:pre-wrap;""> while a >= 10:
   a /= 3
   a *= 2</a><a style=""""></a></div></div>","12","12","1","20","while a >= 10:
   a /= 3
   a *= 2","12","1"
"","html-keyboard-response","215","414002","0.0-7.0-4.0-2.0-0.0","482","<div><div style=""""><a style=""white-space:pre-wrap;""> while a >= 10:
   a /= 3
   a *= 2</a><a style=""""></a></div></div>","4","4","1","20","while a >= 10:
   a /= 3
   a *= 2","4","2"
"","html-keyboard-response","216","415370","0.0-7.0-4.0-3.0-0.0","856","<div><div style=""""><a style=""white-space:pre-wrap;""> while a >= 10:
   a /= 3
   a *= 2</a><a style=""""></a></div></div>","8","8","1","20","while a >= 10:
   a /= 3
   a *= 2","8","3"
"","html-keyboard-response","217","416858","0.0-7.0-4.0-4.0-0.0","981","<div><div style=""""><a style=""white-space:pre-wrap;""> while a >= 10:
   a /= 3
   a *= 2</a><a style=""""></a></div></div>","backspace","","1","","","backspace",""
"","html-keyboard-response","218","419514","0.0-7.0-5.0-0.0-0.0","2143","<div><div style=""""><a style=""white-space:pre-wrap;""> while a >= 2:
   a /= 2</a><a style=""""></a></div></div>","4","4","1","21","while a >= 2:
   a /= 2","4","0"
"","html-keyboard-response","219","420058","0.0-7.0-5.0-1.0-0.0","31","<div><div style=""""><a style=""white-space:pre-wrap;""> while a >= 2:
   a /= 2</a><a style=""""></a></div></div>","2","2","1","21","while a >= 2:
   a /= 2","2","1"
"","html-keyboard-response","220","421314","0.0-7.0-5.0-2.0-0.0","747","<div><div style=""""><a style=""white-space:pre-wrap;""> while a >= 2:
   a /= 2</a><a style=""""></a></div></div>","1","1","1","21","while a >= 2:
   a /= 2","1","2"
"","html-keyboard-response","221","421874","0.0-7.0-5.0-3.0-0.0","51","<div><div style=""""><a style=""white-space:pre-wrap;""> while a >= 2:
   a /= 2</a><a style=""""></a></div></div>","backspace","","1","","","backspace",""
"","html-keyboard-response","222","423930","0.0-7.0-6.0-0.0-0.0","1548","<div><div style=""""><a style=""white-space:pre-wrap;""> for i in [1, 2, 3, 4]:
   a += 2</a><a style=""""></a></div></div>","3","3","1","22","for i in [1, 2, 3, 4]:
   a += 2","3","0"
"","html-keyboard-response","223","424954","0.0-7.0-6.0-1.0-0.0","508","<div><div style=""""><a style=""white-space:pre-wrap;""> for i in [1, 2, 3, 4]:
   a += 2</a><a style=""""></a></div></div>","5","5","1","22","for i in [1, 2, 3, 4]:
   a += 2","5","1"
"","html-keyboard-response","224","425666","0.0-7.0-6.0-2.0-0.0","195","<div><div style=""""><a style=""white-space:pre-wrap;""> for i in [1, 2, 3, 4]:
   a += 2</a><a style=""""></a></div></div>","7","7","1","22","for i in [1, 2, 3, 4]:
   a += 2","7","2"
"","html-keyboard-response","225","426370","0.0-7.0-6.0-3.0-0.0","199","<div><div style=""""><a style=""white-space:pre-wrap;""> for i in [1, 2, 3, 4]:
   a += 2</a><a style=""""></a></div></div>","9","9","1","22","for i in [1, 2, 3, 4]:
   a += 2","9","3"
"","html-keyboard-response","226","426986","0.0-7.0-6.0-4.0-0.0","109","<div><div style=""""><a style=""white-space:pre-wrap;""> for i in [1, 2, 3, 4]:
   a += 2</a><a style=""""></a></div></div>","11","","0","","","backspace",""
"","html-keyboard-response","227","431004","0.0-7.0-6.0-4.0-1.0-0.0","null","<div><p style=""font-size:25px; color:green;"">end of loop<br>>>>>>></p>
						<div>Hit the ""end loop"" key to continue</div></div>","null","","","","","",""
"","html-keyboard-response","228","432706","0.0-7.0-6.0-4.1-0.1","1700","<div><div style=""""><a style=""white-space:pre-wrap;""> for i in [1, 2, 3, 4]:
   a += 2</a><a style=""""></a></div></div>","backspace","","1","","","backspace",""
"","html-keyboard-response","229","435194","0.0-7.0-7.0-0.0-0.0","1980","<div><div style=""""><a style=""white-space:pre-wrap;""> while a >= 6:
   a += 9
   a /= 3</a><a style=""""></a></div></div>","18","18","1","23","while a >= 6:
   a += 9
   a /= 3","18","0"
"","html-keyboard-response","230","436594","0.0-7.0-7.0-1.0-0.0","890","<div><div style=""""><a style=""white-space:pre-wrap;""> while a >= 6:
   a += 9
   a /= 3</a><a style=""""></a></div></div>","6","6","1","23","while a >= 6:
   a += 9
   a /= 3","6","1"
"","html-keyboard-response","231","437970","0.0-7.0-7.0-2.0-0.0","868","<div><div style=""""><a style=""white-space:pre-wrap;""> while a >= 6:
   a += 9
   a /= 3</a><a style=""""></a></div></div>","15","15","1","23","while a >= 6:
   a += 9
   a /= 3","15","2"
"","html-keyboard-response","232","439282","0.0-7.0-7.0-3.0-0.0","809","<div><div style=""""><a style=""white-space:pre-wrap;""> while a >= 6:
   a += 9
   a /= 3</a><a style=""""></a></div></div>","5","5","1","23","while a >= 6:
   a += 9
   a /= 3","5","3"
"","html-keyboard-response","233","440066","0.0-7.0-7.0-4.0-0.0","269","<div><div style=""""><a style=""white-space:pre-wrap;""> while a >= 6:
   a += 9
   a /= 3</a><a style=""""></a></div></div>","backspace","","1","","","backspace",""
"","html-keyboard-response","234","442458","0.0-7.0-8.0-0.0-0.0","1883","<div><div style=""""><a style=""white-space:pre-wrap;""> for i in [1, 2, 3]:
   a = round_down(a*1.5)</a><a style=""""></a></div></div>","7","7","1","24","for i in [1, 2, 3]:
   a = round_down(a*1.5)","7","0"
"","html-keyboard-response","235","443778","0.0-7.0-8.0-1.0-0.0","814","<div><div style=""""><a style=""white-space:pre-wrap;""> for i in [1, 2, 3]:
   a = round_down(a*1.5)</a><a style=""""></a></div></div>","10","10","1","24","for i in [1, 2, 3]:
   a = round_down(a*1.5)","10","1"
"","html-keyboard-response","236","445090","0.0-7.0-8.0-2.0-0.0","804","<div><div style=""""><a style=""white-space:pre-wrap;""> for i in [1, 2, 3]:
   a = round_down(a*1.5)</a><a style=""""></a></div></div>","15","15","1","24","for i in [1, 2, 3]:
   a = round_down(a*1.5)","15","2"
"","html-keyboard-response","237","445762","0.0-7.0-8.0-3.0-0.0","157","<div><div style=""""><a style=""white-space:pre-wrap;""> for i in [1, 2, 3]:
   a = round_down(a*1.5)</a><a style=""""></a></div></div>","backspace","","1","","","backspace",""
"","html-keyboard-response","238","448786","0.0-7.0-9.0-0.0-0.0","2511","<div><div style=""""><a style=""white-space:pre-wrap;""> for i in [1, 2]:
   a = average(a,3)</a><a style=""""></a></div></div>","9","9","1","25","for i in [1, 2]:
   a = average(a,3)","9","0"
"","html-keyboard-response","239","449794","0.0-7.0-9.0-1.0-0.0","504","<div><div style=""""><a style=""white-space:pre-wrap;""> for i in [1, 2]:
   a = average(a,3)</a><a style=""""></a></div></div>","6","6","1","25","for i in [1, 2]:
   a = average(a,3)","6","1"
"","html-keyboard-response","240","451306","0.0-7.0-9.0-2.0-0.0","1005","<div><div style=""""><a style=""white-space:pre-wrap;""> for i in [1, 2]:
   a = average(a,3)</a><a style=""""></a></div></div>","backspace","","1","","","backspace",""
"","html-keyboard-response","241","453186","0.0-7.0-10.0-0.0-0.0","1363","<div><div style=""""><a style=""white-space:pre-wrap;""> while a <= 11:
   a *= 2
   a -= 5</a><a style=""""></a></div></div>","12","12","1","26","while a <= 11:
   a *= 2
   a -= 5","12","0"
"","html-keyboard-response","242","454282","0.0-7.0-10.0-1.0-0.0","586","<div><div style=""""><a style=""white-space:pre-wrap;""> while a <= 11:
   a *= 2
   a -= 5</a><a style=""""></a></div></div>","7","7","1","26","while a <= 11:
   a *= 2
   a -= 5","7","1"
"","html-keyboard-response","243","456209","0.0-7.0-10.0-2.0-0.0","1425","<div><div style=""""><a style=""white-space:pre-wrap;""> while a <= 11:
   a *= 2
   a -= 5</a><a style=""""></a></div></div>","14","14","1","26","while a <= 11:
   a *= 2
   a -= 5","14","2"
"","html-keyboard-response","244","458874","0.0-7.0-10.0-3.0-0.0","2160","<div><div style=""""><a style=""white-space:pre-wrap;""> while a <= 11:
   a *= 2
   a -= 5</a><a style=""""></a></div></div>","9","9","1","26","while a <= 11:
   a *= 2
   a -= 5","9","3"
"","html-keyboard-response","245","460226","0.0-7.0-10.0-4.0-0.0","842","<div><div style=""""><a style=""white-space:pre-wrap;""> while a <= 11:
   a *= 2
   a -= 5</a><a style=""""></a></div></div>","backspace","18","0","26","while a <= 11:
   a *= 2
   a -= 5","18","4"
"","html-keyboard-response","247","466450","0.0-7.0-10.0-5.0-0.0","2207","<div><div style=""""><a style=""white-space:pre-wrap;""> while a <= 11:
   a *= 2
   a -= 5</a><a style=""""></a></div></div>","13","13","1","26","while a <= 11:
   a *= 2
   a -= 5","13","5"
"","html-keyboard-response","248","468690","0.0-7.0-10.0-6.0-0.0","1736","<div><div style=""""><a style=""white-space:pre-wrap;""> while a <= 11:
   a *= 2
   a -= 5</a><a style=""""></a></div></div>","backspace","","1","","","backspace",""
"","html-keyboard-response","249","471426","0.0-7.0-11.0-0.0-0.0","2221","<div><div style=""""><a style=""white-space:pre-wrap;""> while a >= 6:
   a += 4
   a -= 7</a><a style=""""></a></div></div>","17","17","1","27","while a >= 6:
   a += 4
   a -= 7","17","0"
"","html-keyboard-response","250","472738","0.0-7.0-11.0-1.0-0.0","803","<div><div style=""""><a style=""white-space:pre-wrap;""> while a >= 6:
   a += 4
   a -= 7</a><a style=""""></a></div></div>","10","10","1","27","while a >= 6:
   a += 4
   a -= 7","10","1"
"","html-keyboard-response","251","474106","0.0-7.0-11.0-2.0-0.0","853","<div><div style=""""><a style=""white-space:pre-wrap;""> while a >= 6:
   a += 4
   a -= 7</a><a style=""""></a></div></div>","14","14","1","27","while a >= 6:
   a += 4
   a -= 7","14","2"
"","html-keyboard-response","252","475418","0.0-7.0-11.0-3.0-0.0","797","<div><div style=""""><a style=""white-space:pre-wrap;""> while a >= 6:
   a += 4
   a -= 7</a><a style=""""></a></div></div>","7","7","1","27","while a >= 6:
   a += 4
   a -= 7","7","3"
"","html-keyboard-response","253","477114","0.0-7.0-11.0-4.0-0.0","1187","<div><div style=""""><a style=""white-space:pre-wrap;""> while a >= 6:
   a += 4
   a -= 7</a><a style=""""></a></div></div>","11","11","1","27","while a >= 6:
   a += 4
   a -= 7","11","4"
"","html-keyboard-response","254","478050","0.0-7.0-11.0-5.0-0.0","433","<div><div style=""""><a style=""white-space:pre-wrap;""> while a >= 6:
   a += 4
   a -= 7</a><a style=""""></a></div></div>","4","4","1","27","while a >= 6:
   a += 4
   a -= 7","4","5"
"","html-keyboard-response","255","478874","0.0-7.0-11.0-6.0-0.0","308","<div><div style=""""><a style=""white-space:pre-wrap;""> while a >= 6:
   a += 4
   a -= 7</a><a style=""""></a></div></div>","backspace","","1","","","backspace",""
"","html-keyboard-response","256","480290","0.0-8.0-1.0","913","<p style=""font-size: 25px;"">Please press space to start the next program<br>>>>>>></p>"," ","","","","","",""
"","html-keyboard-response","257","480962","0.0-8.0-2.0","670","<div><div style="" font-size:25px; color:green;""><a style=""white-space:pre-wrap;""> a = 16</a><a style=""""></a></div></div>","","null","","82","a = 16","",""
"","html-keyboard-response","258","484594","0.0-8.0-4.0-0.0-0.0","3130","<div><div style=""""><a style=""white-space:pre-wrap;""> while a >= 6:
   a /= 2</a><a style=""""></a></div></div>","8","8","1","83","while a >= 6:
   a /= 2","8","0"
"","html-keyboard-response","259","485786","0.0-8.0-4.0-1.0-0.0","676","<div><div style=""""><a style=""white-space:pre-wrap;""> while a >= 6:
   a /= 2</a><a style=""""></a></div></div>","4","4","1","83","while a >= 6:
   a /= 2","4","1"
"","html-keyboard-response","260","486402","0.0-8.0-4.0-2.0-0.0","110","<div><div style=""""><a style=""white-space:pre-wrap;""> while a >= 6:
   a /= 2</a><a style=""""></a></div></div>","backspace","","1","","","backspace",""
"","html-keyboard-response","261","489714","0.0-8.0-5.0-0.0-0.0","2795","<div><div style=""""><a style=""white-space:pre-wrap;""> while a <= 11:
   a = round_up(a*1.5)</a><a style=""""></a></div></div>","6","6","1","84","while a <= 11:
   a = round_up(a*1.5)","6","0"
"","html-keyboard-response","262","491770","0.0-8.0-5.0-1.0-0.0","1549","<div><div style=""""><a style=""white-space:pre-wrap;""> while a <= 11:
   a = round_up(a*1.5)</a><a style=""""></a></div></div>","9","9","1","84","while a <= 11:
   a = round_up(a*1.5)","9","1"
"","html-keyboard-response","263","495402","0.0-8.0-5.0-2.0-0.0","3119","<div><div style=""""><a style=""white-space:pre-wrap;""> while a <= 11:
   a = round_up(a*1.5)</a><a style=""""></a></div></div>","14","14","1","84","while a <= 11:
   a = round_up(a*1.5)","14","2"
"","html-keyboard-response","264","496538","0.0-8.0-5.0-3.0-0.0","631","<div><div style=""""><a style=""white-space:pre-wrap;""> while a <= 11:
   a = round_up(a*1.5)</a><a style=""""></a></div></div>","backspace","","1","","","backspace",""
"","html-keyboard-response","265","498762","0.0-8.0-6.0-0.0-0.0","1718","<div><div style=""""><a style=""white-space:pre-wrap;""> for i in [1, 2]:
   a += 5
   a -= 6</a><a style=""""></a></div></div>","19","19","1","85","for i in [1, 2]:
   a += 5
   a -= 6","19","0"
"","html-keyboard-response","266","500818","0.0-8.0-6.0-1.0-0.0","1541","<div><div style=""""><a style=""white-space:pre-wrap;""> for i in [1, 2]:
   a += 5
   a -= 6</a><a style=""""></a></div></div>","13","13","1","85","for i in [1, 2]:
   a += 5
   a -= 6","13","1"
"","html-keyboard-response","267","502170","0.0-8.0-6.0-2.0-0.0","840","<div><div style=""""><a style=""white-space:pre-wrap;""> for i in [1, 2]:
   a += 5
   a -= 6</a><a style=""""></a></div></div>","18","18","1","85","for i in [1, 2]:
   a += 5
   a -= 6","18","2"
"","html-keyboard-response","268","503322","0.0-8.0-6.0-3.0-0.0","640","<div><div style=""""><a style=""white-space:pre-wrap;""> for i in [1, 2]:
   a += 5
   a -= 6</a><a style=""""></a></div></div>","12","12","1","85","for i in [1, 2]:
   a += 5
   a -= 6","12","3"
"","html-keyboard-response","269","504058","0.0-8.0-6.0-4.0-0.0","223","<div><div style=""""><a style=""white-space:pre-wrap;""> for i in [1, 2]:
   a += 5
   a -= 6</a><a style=""""></a></div></div>","backspace","","1","","","backspace",""
"","html-keyboard-response","270","507466","0.0-8.0-7.0-0.0-0.0","2897","<div><div style=""""><a style=""white-space:pre-wrap;""> for i in [1, 2, 3]:
   a = average(a,4)</a><a style=""""></a></div></div>","8","8","1","86","for i in [1, 2, 3]:
   a = average(a,4)","8","0"
"","html-keyboard-response","271","508978","0.0-8.0-7.0-1.0-0.0","1004","<div><div style=""""><a style=""white-space:pre-wrap;""> for i in [1, 2, 3]:
   a = average(a,4)</a><a style=""""></a></div></div>","6","6","1","86","for i in [1, 2, 3]:
   a = average(a,4)","6","1"
"","html-keyboard-response","272","509714","0.0-8.0-7.0-2.0-0.0","224","<div><div style=""""><a style=""white-space:pre-wrap;""> for i in [1, 2, 3]:
   a = average(a,4)</a><a style=""""></a></div></div>","5","5","1","86","for i in [1, 2, 3]:
   a = average(a,4)","5","2"
"","html-keyboard-response","273","510402","0.0-8.0-7.0-3.0-0.0","181","<div><div style=""""><a style=""white-space:pre-wrap;""> for i in [1, 2, 3]:
   a = average(a,4)</a><a style=""""></a></div></div>","backspace","","1","","","backspace",""
"","html-keyboard-response","274","513554","0.0-8.0-8.0-0.0-0.0","2649","<div><div style=""""><a style=""white-space:pre-wrap;""> while a >= 3:
   a *= 3
   a -= 11</a><a style=""""></a></div></div>","15","15","1","87","while a >= 3:
   a *= 3
   a -= 11","15","0"
"","html-keyboard-response","275","514554","0.0-8.0-8.0-1.0-0.0","491","<div><div style=""""><a style=""white-space:pre-wrap;""> while a >= 3:
   a *= 3
   a -= 11</a><a style=""""></a></div></div>","4","4","1","87","while a >= 3:
   a *= 3
   a -= 11","4","1"
"","html-keyboard-response","276","515978","0.0-8.0-8.0-2.0-0.0","919","<div><div style=""""><a style=""white-space:pre-wrap;""> while a >= 3:
   a *= 3
   a -= 11</a><a style=""""></a></div></div>","12","12","1","87","while a >= 3:
   a *= 3
   a -= 11","12","2"
"","html-keyboard-response","277","518354","0.0-8.0-8.0-3.0-0.0","1869","<div><div style=""""><a style=""white-space:pre-wrap;""> while a >= 3:
   a *= 3
   a -= 11</a><a style=""""></a></div></div>","1","1","1","87","while a >= 3:
   a *= 3
   a -= 11","1","3"
"","html-keyboard-response","278","518898","0.0-8.0-8.0-4.0-0.0","36","<div><div style=""""><a style=""white-space:pre-wrap;""> while a >= 3:
   a *= 3
   a -= 11</a><a style=""""></a></div></div>","backspace","","1","","","backspace",""
"","html-keyboard-response","279","522306","0.0-8.0-9.0-0.0-0.0","2900","<div><div style=""""><a style=""white-space:pre-wrap;""> for i in [1, 2]:
   a *= 6
   a /= 2</a><a style=""""></a></div></div>","6","6","1","88","for i in [1, 2]:
   a *= 6
   a /= 2","6","0"
"","html-keyboard-response","280","523242","0.0-8.0-9.0-1.0-0.0","425","<div><div style=""""><a style=""white-space:pre-wrap;""> for i in [1, 2]:
   a *= 6
   a /= 2</a><a style=""""></a></div></div>","3","3","1","88","for i in [1, 2]:
   a *= 6
   a /= 2","3","1"
"","html-keyboard-response","281","524242","0.0-8.0-9.0-2.0-0.0","496","<div><div style=""""><a style=""white-space:pre-wrap;""> for i in [1, 2]:
   a *= 6
   a /= 2</a><a style=""""></a></div></div>","18","18","1","88","for i in [1, 2]:
   a *= 6
   a /= 2","18","2"
"","html-keyboard-response","282","525122","0.0-8.0-9.0-3.0-0.0","367","<div><div style=""""><a style=""white-space:pre-wrap;""> for i in [1, 2]:
   a *= 6
   a /= 2</a><a style=""""></a></div></div>","9","9","1","88","for i in [1, 2]:
   a *= 6
   a /= 2","9","3"
"","html-keyboard-response","283","525666","0.0-8.0-9.0-4.0-0.0","28","<div><div style=""""><a style=""white-space:pre-wrap;""> for i in [1, 2]:
   a *= 6
   a /= 2</a><a style=""""></a></div></div>","backspace","","1","","","backspace",""
"","html-keyboard-response","284","527778","0.0-8.0-10.0-0.0-0.0","1597","<div><div style=""""><a style=""white-space:pre-wrap;""> for i in [1, 2]:
   a -= 2</a><a style=""""></a></div></div>","7","7","1","89","for i in [1, 2]:
   a -= 2","7","0"
"","html-keyboard-response","285","528586","0.0-8.0-10.0-1.0-0.0","291","<div><div style=""""><a style=""white-space:pre-wrap;""> for i in [1, 2]:
   a -= 2</a><a style=""""></a></div></div>","5","5","1","89","for i in [1, 2]:
   a -= 2","5","1"
"","html-keyboard-response","286","529250","0.0-8.0-10.0-2.0-0.0","162","<div><div style=""""><a style=""white-space:pre-wrap;""> for i in [1, 2]:
   a -= 2</a><a style=""""></a></div></div>","backspace","","1","","","backspace",""
"","html-keyboard-response","287","533098","0.0-8.0-11.0-0.0-0.0","3339","<div><div style=""""><a style=""white-space:pre-wrap;""> while a <= 7:
   a += 9
   a /= 2</a><a style=""""></a></div></div>","14","14","1","90","while a <= 7:
   a += 9
   a /= 2","14","0"
"","html-keyboard-response","288","534634","0.0-8.0-11.0-1.0-0.0","1021","<div><div style=""""><a style=""white-space:pre-wrap;""> while a <= 7:
   a += 9
   a /= 2</a><a style=""""></a></div></div>","7","7","1","90","while a <= 7:
   a += 9
   a /= 2","7","1"
"","html-keyboard-response","289","535874","0.0-8.0-11.0-2.0-0.0","734","<div><div style=""""><a style=""white-space:pre-wrap;""> while a <= 7:
   a += 9
   a /= 2</a><a style=""""></a></div></div>","16","16","1","90","while a <= 7:
   a += 9
   a /= 2","16","2"
"","html-keyboard-response","290","537498","0.0-8.0-11.0-3.0-0.0","1112","<div><div style=""""><a style=""white-space:pre-wrap;""> while a <= 7:
   a += 9
   a /= 2</a><a style=""""></a></div></div>","8","8","1","90","while a <= 7:
   a += 9
   a /= 2","8","3"
"","html-keyboard-response","291","538418","0.0-8.0-11.0-4.0-0.0","415","<div><div style=""""><a style=""white-space:pre-wrap;""> while a <= 7:
   a += 9
   a /= 2</a><a style=""""></a></div></div>","backspace","","1","","","backspace",""
"","html-keyboard-response","292","541467","0.0-9.0-1.0","2542","<p style=""font-size: 25px;"">Please press space to start the next program<br>>>>>>></p>"," ","","","","","",""
"","html-keyboard-response","293","542314","0.0-9.0-2.0","846","<div><div style="" font-size:25px; color:green;""><a style=""white-space:pre-wrap;""> a = 9</a><a style=""""></a></div></div>","","null","","91","a = 9","",""
"","html-keyboard-response","294","544538","0.0-9.0-4.0-0.0-0.0","1711","<div><div style=""""><a style=""white-space:pre-wrap;""> while a >= 2:
   a /= 3</a><a style=""""></a></div></div>","3","3","1","92","while a >= 2:
   a /= 3","3","0"
"","html-keyboard-response","295","545266","0.0-9.0-4.0-1.0-0.0","211","<div><div style=""""><a style=""white-space:pre-wrap;""> while a >= 2:
   a /= 3</a><a style=""""></a></div></div>","1","1","1","92","while a >= 2:
   a /= 3","1","1"
"","html-keyboard-response","296","545913","0.0-9.0-4.0-2.0-0.0","143","<div><div style=""""><a style=""white-space:pre-wrap;""> while a >= 2:
   a /= 3</a><a style=""""></a></div></div>","backspace","","1","","","backspace",""
"","html-keyboard-response","297","547722","0.0-9.0-5.0-0.0-0.0","1296","<div><div style=""""><a style=""white-space:pre-wrap;""> for i in [1, 2, 3]:
   a += 6</a><a style=""""></a></div></div>","7","7","1","93","for i in [1, 2, 3]:
   a += 6","7","0"
"","html-keyboard-response","298","549491","0.0-9.0-5.0-1.0-0.0","1266","<div><div style=""""><a style=""white-space:pre-wrap;""> for i in [1, 2, 3]:
   a += 6</a><a style=""""></a></div></div>","13","13","1","93","for i in [1, 2, 3]:
   a += 6","13","1"
"","html-keyboard-response","299","550147","0.0-9.0-5.0-2.0-0.0","151","<div><div style=""""><a style=""white-space:pre-wrap;""> for i in [1, 2, 3]:
   a += 6</a><a style=""""></a></div></div>","19","19","1","93","for i in [1, 2, 3]:
   a += 6","19","2"
"","html-keyboard-response","300","550786","0.0-9.0-5.0-3.0-0.0","125","<div><div style=""""><a style=""white-space:pre-wrap;""> for i in [1, 2, 3]:
   a += 6</a><a style=""""></a></div></div>","backspace","","1","","","backspace",""
"","html-keyboard-response","301","552907","0.0-9.0-6.0-0.0-0.0","1608","<div><div style=""""><a style=""white-space:pre-wrap;""> for i in [1, 2]:
   a += 1
   a -= 8</a><a style=""""></a></div></div>","20","20","1","94","for i in [1, 2]:
   a += 1
   a -= 8","20","0"
"","html-keyboard-response","302","553722","0.0-9.0-6.0-1.0-0.0","300","<div><div style=""""><a style=""white-space:pre-wrap;""> for i in [1, 2]:
   a += 1
   a -= 8</a><a style=""""></a></div></div>","12","12","1","94","for i in [1, 2]:
   a += 1
   a -= 8","12","1"
"","html-keyboard-response","303","555202","0.0-9.0-6.0-2.0-0.0","972","<div><div style=""""><a style=""white-space:pre-wrap;""> for i in [1, 2]:
   a += 1
   a -= 8</a><a style=""""></a></div></div>","13","13","1","94","for i in [1, 2]:
   a += 1
   a -= 8","13","2"
"","html-keyboard-response","304","557106","0.0-9.0-6.0-3.0-0.0","1400","<div><div style=""""><a style=""white-space:pre-wrap;""> for i in [1, 2]:
   a += 1
   a -= 8</a><a style=""""></a></div></div>","5","5","1","94","for i in [1, 2]:
   a += 1
   a -= 8","5","3"
"","html-keyboard-response","305","557874","0.0-9.0-6.0-4.0-0.0","260","<div><div style=""""><a style=""white-space:pre-wrap;""> for i in [1, 2]:
   a += 1
   a -= 8</a><a style=""""></a></div></div>","backspace","","1","","","backspace",""
"","html-keyboard-response","306","560258","0.0-9.0-7.0-0.0-0.0","1869","<div><div style=""""><a style=""white-space:pre-wrap;""> while a <= 6:
   a *= 3
   a -= 9</a><a style=""""></a></div></div>","15","15","1","95","while a <= 6:
   a *= 3
   a -= 9","15","0"
"","html-keyboard-response","307","562251","0.0-9.0-7.0-1.0-0.0","1487","<div><div style=""""><a style=""white-space:pre-wrap;""> while a <= 6:
   a *= 3
   a -= 9</a><a style=""""></a></div></div>","6","6","1","95","while a <= 6:
   a *= 3
   a -= 9","6","1"
"","html-keyboard-response","308","564955","0.0-9.0-7.0-2.0-0.0","2189","<div><div style=""""><a style=""white-space:pre-wrap;""> while a <= 6:
   a *= 3
   a -= 9</a><a style=""""></a></div></div>","18","18","1","95","while a <= 6:
   a *= 3
   a -= 9","18","2"
"","html-keyboard-response","309","566722","0.0-9.0-7.0-3.0-0.0","1256","<div><div style=""""><a style=""white-space:pre-wrap;""> while a <= 6:
   a *= 3
   a -= 9</a><a style=""""></a></div></div>","9","9","1","95","while a <= 6:
   a *= 3
   a -= 9","9","3"
"","html-keyboard-response","310","567274","0.0-9.0-7.0-4.0-0.0","40","<div><div style=""""><a style=""white-space:pre-wrap;""> while a <= 6:
   a *= 3
   a -= 9</a><a style=""""></a></div></div>","backspace","","1","","","backspace",""
"","html-keyboard-response","311","570890","0.0-9.0-8.0-0.0-0.0","3109","<div><div style=""""><a style=""white-space:pre-wrap;""> while a >= 3:
   a = average(a, 1)</a><a style=""""></a></div></div>","5","5","1","96","while a >= 3:
   a = average(a, 1)","5","0"
"","html-keyboard-response","312","571754","0.0-9.0-8.0-1.0-0.0","350","<div><div style=""""><a style=""white-space:pre-wrap;""> while a >= 3:
   a = average(a, 1)</a><a style=""""></a></div></div>","3","3","1","96","while a >= 3:
   a = average(a, 1)","3","1"
"","html-keyboard-response","313","572298","0.0-9.0-8.0-2.0-0.0","37","<div><div style=""""><a style=""white-space:pre-wrap;""> while a >= 3:
   a = average(a, 1)</a><a style=""""></a></div></div>","2","2","1","96","while a >= 3:
   a = average(a, 1)","2","2"
"","html-keyboard-response","314","572898","0.0-9.0-8.0-3.0-0.0","92","<div><div style=""""><a style=""white-space:pre-wrap;""> while a >= 3:
   a = average(a, 1)</a><a style=""""></a></div></div>","backspace","","1","","","backspace",""
"","html-keyboard-response","315","575435","0.0-9.0-9.0-0.0-0.0","2020","<div><div style=""""><a style=""white-space:pre-wrap;""> while a <= 9:
   a -= 1
   a *= 5</a><a style=""""></a></div></div>","1","1","1","97","while a <= 9:
   a -= 1
   a *= 5","1","0"
"","html-keyboard-response","316","576290","0.0-9.0-9.0-1.0-0.0","341","<div><div style=""""><a style=""white-space:pre-wrap;""> while a <= 9:
   a -= 1
   a *= 5</a><a style=""""></a></div></div>","5","5","1","97","while a <= 9:
   a -= 1
   a *= 5","5","1"
"","html-keyboard-response","317","577402","0.0-9.0-9.0-2.0-0.0","598","<div><div style=""""><a style=""white-space:pre-wrap;""> while a <= 9:
   a -= 1
   a *= 5</a><a style=""""></a></div></div>","4","4","1","97","while a <= 9:
   a -= 1
   a *= 5","4","2"
"","html-keyboard-response","318","578434","0.0-9.0-9.0-3.0-0.0","523","<div><div style=""""><a style=""white-space:pre-wrap;""> while a <= 9:
   a -= 1
   a *= 5</a><a style=""""></a></div></div>","20","20","1","97","while a <= 9:
   a -= 1
   a *= 5","20","3"
"","html-keyboard-response","319","579090","0.0-9.0-9.0-4.0-0.0","152","<div><div style=""""><a style=""white-space:pre-wrap;""> while a <= 9:
   a -= 1
   a *= 5</a><a style=""""></a></div></div>","backspace","","1","","","backspace",""
"","html-keyboard-response","320","580810","0.0-9.0-10.0-0.0-0.0","1216","<div><div style=""""><a style=""white-space:pre-wrap;""> for i in [1, 2, 3]:
   a -= 3</a><a style=""""></a></div></div>","17","17","1","98","for i in [1, 2, 3]:
   a -= 3","17","0"
"","html-keyboard-response","321","581658","0.0-9.0-10.0-1.0-0.0","335","<div><div style=""""><a style=""white-space:pre-wrap;""> for i in [1, 2, 3]:
   a -= 3</a><a style=""""></a></div></div>","14","14","1","98","for i in [1, 2, 3]:
   a -= 3","14","1"
"","html-keyboard-response","322","582474","0.0-9.0-10.0-2.0-0.0","298","<div><div style=""""><a style=""white-space:pre-wrap;""> for i in [1, 2, 3]:
   a -= 3</a><a style=""""></a></div></div>","11","11","1","98","for i in [1, 2, 3]:
   a -= 3","11","2"
"","html-keyboard-response","323","583179","0.0-9.0-10.0-3.0-0.0","188","<div><div style=""""><a style=""white-space:pre-wrap;""> for i in [1, 2, 3]:
   a -= 3</a><a style=""""></a></div></div>","backspace","","1","","","backspace",""
"","html-keyboard-response","324","586203","0.0-9.0-11.0-0.0-0.0","2511","<div><div style=""""><a style=""white-space:pre-wrap;""> for i in [1, 2]:
   a -= 5</a><a style=""""></a></div></div>","6","6","1","99","for i in [1, 2]:
   a -= 5","6","0"
"","html-keyboard-response","325","587466","0.0-9.0-11.0-1.0-0.0","747","<div><div style=""""><a style=""white-space:pre-wrap;""> for i in [1, 2]:
   a -= 5</a><a style=""""></a></div></div>","1","1","1","99","for i in [1, 2]:
   a -= 5","1","1"
"","html-keyboard-response","326","588058","0.0-9.0-11.0-2.0-0.0","86","<div><div style=""""><a style=""white-space:pre-wrap;""> for i in [1, 2]:
   a -= 5</a><a style=""""></a></div></div>","backspace","","1","","","backspace",""
"","html-keyboard-response","327","589418","0.0-10.0-1.0","857","<p style=""font-size: 25px;"">Please press space to start the next program<br>>>>>>></p>"," ","","","","","",""
"","html-keyboard-response","328","590594","0.0-10.0-2.0","1174","<div><div style="" font-size:25px; color:green;""><a style=""white-space:pre-wrap;""> a = 7</a><a style=""""></a></div></div>","","null","","10","a = 7","",""
"","html-keyboard-response","329","593442","0.0-10.0-4.0-0.0-0.0","2346","<div><div style=""""><a style=""white-space:pre-wrap;""> while a <= 14:
   a *= 2
   a -= 4</a><a style=""""></a></div></div>","14","14","1","11","while a <= 14:
   a *= 2
   a -= 4","14","0"
"","html-keyboard-response","330","594114","0.0-10.0-4.0-1.0-0.0","164","<div><div style=""""><a style=""white-space:pre-wrap;""> while a <= 14:
   a *= 2
   a -= 4</a><a style=""""></a></div></div>","10","10","1","11","while a <= 14:
   a *= 2
   a -= 4","10","1"
"","html-keyboard-response","331","595122","0.0-10.0-4.0-2.0-0.0","502","<div><div style=""""><a style=""white-space:pre-wrap;""> while a <= 14:
   a *= 2
   a -= 4</a><a style=""""></a></div></div>","20","20","1","11","while a <= 14:
   a *= 2
   a -= 4","20","2"
"","html-keyboard-response","332","595650","0.0-10.0-4.0-3.0-0.0","19","<div><div style=""""><a style=""white-space:pre-wrap;""> while a <= 14:
   a *= 2
   a -= 4</a><a style=""""></a></div></div>","16","16","1","11","while a <= 14:
   a *= 2
   a -= 4","16","3"
"","html-keyboard-response","333","596555","0.0-10.0-4.0-4.0-0.0","396","<div><div style=""""><a style=""white-space:pre-wrap;""> while a <= 14:
   a *= 2
   a -= 4</a><a style=""""></a></div></div>","backspace","","1","","","backspace",""
"","html-keyboard-response","334","599850","0.0-10.0-5.0-0.0-0.0","2790","<div><div style=""""><a style=""white-space:pre-wrap;""> for i in [1, 2, 3]:
   a /= 4
   a *= 2</a><a style=""""></a></div></div>","4","4","1","12","for i in [1, 2, 3]:
   a /= 4
   a *= 2","4","0"
"","html-keyboard-response","335","601026","0.0-10.0-5.0-1.0-0.0","659","<div><div style=""""><a style=""white-space:pre-wrap;""> for i in [1, 2, 3]:
   a /= 4
   a *= 2</a><a style=""""></a></div></div>","8","8","1","12","for i in [1, 2, 3]:
   a /= 4
   a *= 2","8","1"
"","html-keyboard-response","336","601786","0.0-10.0-5.0-2.0-0.0","243","<div><div style=""""><a style=""white-space:pre-wrap;""> for i in [1, 2, 3]:
   a /= 4
   a *= 2</a><a style=""""></a></div></div>","2","2","1","12","for i in [1, 2, 3]:
   a /= 4
   a *= 2","2","2"
"","html-keyboard-response","337","602914","0.0-10.0-5.0-3.0-0.0","625","<div><div style=""""><a style=""white-space:pre-wrap;""> for i in [1, 2, 3]:
   a /= 4
   a *= 2</a><a style=""""></a></div></div>","4","4","1","12","for i in [1, 2, 3]:
   a /= 4
   a *= 2","4","3"
"","html-keyboard-response","338","603562","0.0-10.0-5.0-4.0-0.0","140","<div><div style=""""><a style=""white-space:pre-wrap;""> for i in [1, 2, 3]:
   a /= 4
   a *= 2</a><a style=""""></a></div></div>","1","1","1","12","for i in [1, 2, 3]:
   a /= 4
   a *= 2","1","4"
"","html-keyboard-response","339","604298","0.0-10.0-5.0-5.0-0.0","229","<div><div style=""""><a style=""white-space:pre-wrap;""> for i in [1, 2, 3]:
   a /= 4
   a *= 2</a><a style=""""></a></div></div>","2","2","1","12","for i in [1, 2, 3]:
   a /= 4
   a *= 2","2","5"
"","html-keyboard-response","340","604826","0.0-10.0-5.0-6.0-0.0","13","<div><div style=""""><a style=""white-space:pre-wrap;""> for i in [1, 2, 3]:
   a /= 4
   a *= 2</a><a style=""""></a></div></div>","backspace","","1","","","backspace",""
"","html-keyboard-response","341","606794","0.0-10.0-6.0-0.0-0.0","1452","<div><div style=""""><a style=""white-space:pre-wrap;""> for i in [1, 2]:
   a = round_up(a*2.5)</a><a style=""""></a></div></div>","5","5","1","13","for i in [1, 2]:
   a = round_up(a*2.5)","5","0"
"","html-keyboard-response","342","608578","0.0-10.0-6.0-1.0-0.0","1269","<div><div style=""""><a style=""white-space:pre-wrap;""> for i in [1, 2]:
   a = round_up(a*2.5)</a><a style=""""></a></div></div>","13","13","1","13","for i in [1, 2]:
   a = round_up(a*2.5)","13","1"
"","html-keyboard-response","343","610954","0.0-10.0-6.0-2.0-0.0","1871","<div><div style=""""><a style=""white-space:pre-wrap;""> for i in [1, 2]:
   a = round_up(a*2.5)</a><a style=""""></a></div></div>","backspace","","1","","","backspace",""
"","html-keyboard-response","344","613722","0.0-10.0-7.0-0.0-0.0","2258","<div><div style=""""><a style=""white-space:pre-wrap;""> for i in [1, 2, 3]:
   a = average(a,5)</a><a style=""""></a></div></div>","9","9","1","14","for i in [1, 2, 3]:
   a = average(a,5)","9","0"
"","html-keyboard-response","345","615074","0.0-10.0-7.0-1.0-0.0","848","<div><div style=""""><a style=""white-space:pre-wrap;""> for i in [1, 2, 3]:
   a = average(a,5)</a><a style=""""></a></div></div>","7","7","1","14","for i in [1, 2, 3]:
   a = average(a,5)","7","1"
"","html-keyboard-response","346","615762","0.0-10.0-7.0-2.0-0.0","183","<div><div style=""""><a style=""white-space:pre-wrap;""> for i in [1, 2, 3]:
   a = average(a,5)</a><a style=""""></a></div></div>","6","6","1","14","for i in [1, 2, 3]:
   a = average(a,5)","6","2"
"","html-keyboard-response","347","616346","0.0-10.0-7.0-3.0-0.0","81","<div><div style=""""><a style=""white-space:pre-wrap;""> for i in [1, 2, 3]:
   a = average(a,5)</a><a style=""""></a></div></div>","backspace","","1","","","backspace",""
"","html-keyboard-response","348","618730","0.0-10.0-8.0-0.0-0.0","1873","<div><div style=""""><a style=""white-space:pre-wrap;""> for i in [1, 2]:
   a += 2
   a /= 2</a><a style=""""></a></div></div>","8","8","1","15","for i in [1, 2]:
   a += 2
   a /= 2","8","0"
"","html-keyboard-response","349","619570","0.0-10.0-8.0-1.0-0.0","326","<div><div style=""""><a style=""white-space:pre-wrap;""> for i in [1, 2]:
   a += 2
   a /= 2</a><a style=""""></a></div></div>","4","4","1","15","for i in [1, 2]:
   a += 2
   a /= 2","4","1"
"","html-keyboard-response","350","621810","0.0-10.0-8.0-2.0-0.0","1732","<div><div style=""""><a style=""white-space:pre-wrap;""> for i in [1, 2]:
   a += 2
   a /= 2</a><a style=""""></a></div></div>","6","6","1","15","for i in [1, 2]:
   a += 2
   a /= 2","6","2"
"","html-keyboard-response","351","622954","0.0-10.0-8.0-3.0-0.0","633","<div><div style=""""><a style=""white-space:pre-wrap;""> for i in [1, 2]:
   a += 2
   a /= 2</a><a style=""""></a></div></div>","3","3","1","15","for i in [1, 2]:
   a += 2
   a /= 2","3","3"
"","html-keyboard-response","352","623778","0.0-10.0-8.0-4.0-0.0","319","<div><div style=""""><a style=""white-space:pre-wrap;""> for i in [1, 2]:
   a += 2
   a /= 2</a><a style=""""></a></div></div>","backspace","","1","","","backspace",""
"","html-keyboard-response","353","625690","0.0-10.0-9.0-0.0-0.0","1407","<div><div style=""""><a style=""white-space:pre-wrap;""> while a <= 9:
   a *= 2</a><a style=""""></a></div></div>","6","6","1","16","while a <= 9:
   a *= 2","6","0"
"","html-keyboard-response","354","626602","0.0-10.0-9.0-1.0-0.0","394","<div><div style=""""><a style=""white-space:pre-wrap;""> while a <= 9:
   a *= 2</a><a style=""""></a></div></div>","12","12","1","16","while a <= 9:
   a *= 2","12","1"
"","html-keyboard-response","355","627250","0.0-10.0-9.0-2.0-0.0","144","<div><div style=""""><a style=""white-space:pre-wrap;""> while a <= 9:
   a *= 2</a><a style=""""></a></div></div>","backspace","","1","","","backspace",""
"","html-keyboard-response","356","630922","0.0-10.0-10.0-0.0-0.0","3163","<div><div style=""""><a style=""white-space:pre-wrap;""> while a <= 14:
   a += 6
   a -= 4</a><a style=""""></a></div></div>","18","18","1","17","while a <= 14:
   a += 6
   a -= 4","18","0"
"","html-keyboard-response","357","631858","0.0-10.0-10.0-1.0-0.0","420","<div><div style=""""><a style=""white-space:pre-wrap;""> while a <= 14:
   a += 6
   a -= 4</a><a style=""""></a></div></div>","14","14","1","17","while a <= 14:
   a += 6
   a -= 4","14","1"
"","html-keyboard-response","358","633962","0.0-10.0-10.0-2.0-0.0","1594","<div><div style=""""><a style=""white-space:pre-wrap;""> while a <= 14:
   a += 6
   a -= 4</a><a style=""""></a></div></div>","20","20","1","17","while a <= 14:
   a += 6
   a -= 4","20","2"
"","html-keyboard-response","359","634570","0.0-10.0-10.0-3.0-0.0","94","<div><div style=""""><a style=""white-space:pre-wrap;""> while a <= 14:
   a += 6
   a -= 4</a><a style=""""></a></div></div>","16","16","1","17","while a <= 14:
   a += 6
   a -= 4","16","3"
"","html-keyboard-response","360","635338","0.0-10.0-10.0-4.0-0.0","254","<div><div style=""""><a style=""white-space:pre-wrap;""> while a <= 14:
   a += 6
   a -= 4</a><a style=""""></a></div></div>","backspace","","1","","","backspace",""
"","html-keyboard-response","361","638170","0.0-10.0-11.0-0.0-0.0","2323","<div><div style=""""><a style=""white-space:pre-wrap;""> for i in [1, 2, 3, 4]:
   a -= 3</a><a style=""""></a></div></div>","13","13","1","18","for i in [1, 2, 3, 4]:
   a -= 3","13","0"
"","html-keyboard-response","362","640538","0.0-10.0-11.0-1.0-0.0","1856","<div><div style=""""><a style=""white-space:pre-wrap;""> for i in [1, 2, 3, 4]:
   a -= 3</a><a style=""""></a></div></div>","10","10","1","18","for i in [1, 2, 3, 4]:
   a -= 3","10","1"
"","html-keyboard-response","363","641618","0.0-10.0-11.0-2.0-0.0","565","<div><div style=""""><a style=""white-space:pre-wrap;""> for i in [1, 2, 3, 4]:
   a -= 3</a><a style=""""></a></div></div>","7","7","1","18","for i in [1, 2, 3, 4]:
   a -= 3","7","2"
"","html-keyboard-response","364","642490","0.0-10.0-11.0-3.0-0.0","369","<div><div style=""""><a style=""white-space:pre-wrap;""> for i in [1, 2, 3, 4]:
   a -= 3</a><a style=""""></a></div></div>","4","4","1","18","for i in [1, 2, 3, 4]:
   a -= 3","4","3"
"","html-keyboard-response","365","643282","0.0-10.0-11.0-4.0-0.0","288","<div><div style=""""><a style=""white-space:pre-wrap;""> for i in [1, 2, 3, 4]:
   a -= 3</a><a style=""""></a></div></div>","backspace","","1","","","backspace",""
"","html-keyboard-response","366","699810","0.0-11.0-0.0-0.0","56012","<p style=""position:absolute; top:30%; font-size:25px; color:green;"" >Take a short break now</p>"," ","","","","","",""
"","html-keyboard-response","367","701594","0.0-11.0-1.0","1782","<p style=""font-size: 25px;"">Please press space to start the next program<br>>>>>>></p>"," ","","","","","",""
"","html-keyboard-response","368","701985","0.0-11.0-2.0","390","<div><div style="" font-size:25px; color:green;""><a style=""white-space:pre-wrap;""> a = 16</a><a style=""""></a></div></div>","","null","","73","a = 16","",""
"","html-keyboard-response","369","704338","0.0-11.0-4.0-0.0-0.0","1848","<div><div style=""""><a style=""white-space:pre-wrap;""> for i in [1, 2]:
   a /= 2</a><a style=""""></a></div></div>","8","8","1","74","for i in [1, 2]:
   a /= 2","8","0"
"","html-keyboard-response","370","705154","0.0-11.0-4.0-1.0-0.0","310","<div><div style=""""><a style=""white-space:pre-wrap;""> for i in [1, 2]:
   a /= 2</a><a style=""""></a></div></div>","4","4","1","74","for i in [1, 2]:
   a /= 2","4","1"
"","html-keyboard-response","371","705665","0.0-11.0-4.0-2.0-0.0","9","<div><div style=""""><a style=""white-space:pre-wrap;""> for i in [1, 2]:
   a /= 2</a><a style=""""></a></div></div>","backspace","","1","","","backspace",""
"","html-keyboard-response","372","707777","0.0-11.0-5.0-0.0-0.0","1598","<div><div style=""""><a style=""white-space:pre-wrap;""> while a <= 11:
   a = round_up(a*1.5)</a><a style=""""></a></div></div>","6","6","1","75","while a <= 11:
   a = round_up(a*1.5)","6","0"
"","html-keyboard-response","373","708681","0.0-11.0-5.0-1.0-0.0","401","<div><div style=""""><a style=""white-space:pre-wrap;""> while a <= 11:
   a = round_up(a*1.5)</a><a style=""""></a></div></div>","9","9","1","75","while a <= 11:
   a = round_up(a*1.5)","9","1"
"","html-keyboard-response","374","709914","0.0-11.0-5.0-2.0-0.0","724","<div><div style=""""><a style=""white-space:pre-wrap;""> while a <= 11:
   a = round_up(a*1.5)</a><a style=""""></a></div></div>","14","14","1","75","while a <= 11:
   a = round_up(a*1.5)","14","2"
"","html-keyboard-response","375","710481","0.0-11.0-5.0-3.0-0.0","54","<div><div style=""""><a style=""white-space:pre-wrap;""> while a <= 11:
   a = round_up(a*1.5)</a><a style=""""></a></div></div>","backspace","","1","","","backspace",""
"","html-keyboard-response","376","712129","0.0-11.0-6.0-0.0-0.0","1137","<div><div style=""""><a style=""white-space:pre-wrap;""> while a >= 13:
   a += 5
   a -= 6</a><a style=""""></a></div></div>","19","19","1","76","while a >= 13:
   a += 5
   a -= 6","19","0"
"","html-keyboard-response","377","713073","0.0-11.0-6.0-1.0-0.0","439","<div><div style=""""><a style=""white-space:pre-wrap;""> while a >= 13:
   a += 5
   a -= 6</a><a style=""""></a></div></div>","13","13","1","76","while a >= 13:
   a += 5
   a -= 6","13","1"
"","html-keyboard-response","378","713969","0.0-11.0-6.0-2.0-0.0","382","<div><div style=""""><a style=""white-space:pre-wrap;""> while a >= 13:
   a += 5
   a -= 6</a><a style=""""></a></div></div>","18","18","1","76","while a >= 13:
   a += 5
   a -= 6","18","2"
"","html-keyboard-response","379","715041","0.0-11.0-6.0-3.0-0.0","563","<div><div style=""""><a style=""white-space:pre-wrap;""> while a >= 13:
   a += 5
   a -= 6</a><a style=""""></a></div></div>","12","12","1","76","while a >= 13:
   a += 5
   a -= 6","12","3"
"","html-keyboard-response","380","715761","0.0-11.0-6.0-4.0-0.0","205","<div><div style=""""><a style=""white-space:pre-wrap;""> while a >= 13:
   a += 5
   a -= 6</a><a style=""""></a></div></div>","backspace","","1","","","backspace",""
"","html-keyboard-response","381","717874","0.0-11.0-7.0-0.0-0.0","1601","<div><div style=""""><a style=""white-space:pre-wrap;""> for i in [1, 2, 3]:
   a = average(a,4)</a><a style=""""></a></div></div>","8","8","1","77","for i in [1, 2, 3]:
   a = average(a,4)","8","0"
"","html-keyboard-response","382","719248","0.0-11.0-7.0-1.0-0.0","865","<div><div style=""""><a style=""white-space:pre-wrap;""> for i in [1, 2, 3]:
   a = average(a,4)</a><a style=""""></a></div></div>","6","6","1","77","for i in [1, 2, 3]:
   a = average(a,4)","6","1"
"","html-keyboard-response","383","719994","0.0-11.0-7.0-2.0-0.0","230","<div><div style=""""><a style=""white-space:pre-wrap;""> for i in [1, 2, 3]:
   a = average(a,4)</a><a style=""""></a></div></div>","5","5","1","77","for i in [1, 2, 3]:
   a = average(a,4)","5","2"
"","html-keyboard-response","384","720705","0.0-11.0-7.0-3.0-0.0","205","<div><div style=""""><a style=""white-space:pre-wrap;""> for i in [1, 2, 3]:
   a = average(a,4)</a><a style=""""></a></div></div>","backspace","","1","","","backspace",""
"","html-keyboard-response","385","723570","0.0-11.0-8.0-0.0-0.0","2350","<div><div style=""""><a style=""white-space:pre-wrap;""> for i in [1, 2]:
   a *= 3
   a -= 11</a><a style=""""></a></div></div>","15","15","1","78","for i in [1, 2]:
   a *= 3
   a -= 11","15","0"
"","html-keyboard-response","386","724802","0.0-11.0-8.0-1.0-0.0","720","<div><div style=""""><a style=""white-space:pre-wrap;""> for i in [1, 2]:
   a *= 3
   a -= 11</a><a style=""""></a></div></div>","4","4","1","78","for i in [1, 2]:
   a *= 3
   a -= 11","4","1"
"","html-keyboard-response","387","726033","0.0-11.0-8.0-2.0-0.0","729","<div><div style=""""><a style=""white-space:pre-wrap;""> for i in [1, 2]:
   a *= 3
   a -= 11</a><a style=""""></a></div></div>","12","12","1","78","for i in [1, 2]:
   a *= 3
   a -= 11","12","2"
"","html-keyboard-response","388","726705","0.0-11.0-8.0-3.0-0.0","168","<div><div style=""""><a style=""white-space:pre-wrap;""> for i in [1, 2]:
   a *= 3
   a -= 11</a><a style=""""></a></div></div>","1","1","1","78","for i in [1, 2]:
   a *= 3
   a -= 11","1","3"
"","html-keyboard-response","389","727289","0.0-11.0-8.0-4.0-0.0","66","<div><div style=""""><a style=""white-space:pre-wrap;""> for i in [1, 2]:
   a *= 3
   a -= 11</a><a style=""""></a></div></div>","backspace","","1","","","backspace",""
"","html-keyboard-response","390","729409","0.0-11.0-9.0-0.0-0.0","1607","<div><div style=""""><a style=""white-space:pre-wrap;""> for i in [1, 2]:
   a *= 6
   a /= 2</a><a style=""""></a></div></div>","6","6","1","79","for i in [1, 2]:
   a *= 6
   a /= 2","6","0"
"","html-keyboard-response","391","730682","0.0-11.0-9.0-1.0-0.0","770","<div><div style=""""><a style=""white-space:pre-wrap;""> for i in [1, 2]:
   a *= 6
   a /= 2</a><a style=""""></a></div></div>","3","3","1","79","for i in [1, 2]:
   a *= 6
   a /= 2","3","1"
"","html-keyboard-response","392","732057","0.0-11.0-9.0-2.0-0.0","863","<div><div style=""""><a style=""white-space:pre-wrap;""> for i in [1, 2]:
   a *= 6
   a /= 2</a><a style=""""></a></div></div>","18","18","1","79","for i in [1, 2]:
   a *= 6
   a /= 2","18","2"
"","html-keyboard-response","393","733049","0.0-11.0-9.0-3.0-0.0","481","<div><div style=""""><a style=""white-space:pre-wrap;""> for i in [1, 2]:
   a *= 6
   a /= 2</a><a style=""""></a></div></div>","9","9","1","79","for i in [1, 2]:
   a *= 6
   a /= 2","9","3"
"","html-keyboard-response","394","734593","0.0-11.0-9.0-4.0-0.0","1036","<div><div style=""""><a style=""white-space:pre-wrap;""> for i in [1, 2]:
   a *= 6
   a /= 2</a><a style=""""></a></div></div>","backspace","","1","","","backspace",""
"","html-keyboard-response","395","738017","0.0-11.0-10.0-0.0-0.0","2912","<div><div style=""""><a style=""white-space:pre-wrap;""> while a >= 7:
   a -= 2</a><a style=""""></a></div></div>","7","7","1","80","while a >= 7:
   a -= 2","7","0"
"","html-keyboard-response","396","738657","0.0-11.0-10.0-1.0-0.0","131","<div><div style=""""><a style=""white-space:pre-wrap;""> while a >= 7:
   a -= 2</a><a style=""""></a></div></div>","5","5","1","80","while a >= 7:
   a -= 2","5","1"
"","html-keyboard-response","397","739209","0.0-11.0-10.0-2.0-0.0","49","<div><div style=""""><a style=""white-space:pre-wrap;""> while a >= 7:
   a -= 2</a><a style=""""></a></div></div>","backspace","","1","","","backspace",""
"","html-keyboard-response","398","742010","0.0-11.0-11.0-0.0-0.0","2287","<div><div style=""""><a style=""white-space:pre-wrap;""> while a <= 7:
   a += 9
   a /= 2</a><a style=""""></a></div></div>","14","14","1","81","while a <= 7:
   a += 9
   a /= 2","14","0"
"","html-keyboard-response","399","743898","0.0-11.0-11.0-1.0-0.0","1371","<div><div style=""""><a style=""white-space:pre-wrap;""> while a <= 7:
   a += 9
   a /= 2</a><a style=""""></a></div></div>","7","7","1","81","while a <= 7:
   a += 9
   a /= 2","7","1"
"","html-keyboard-response","400","745505","0.0-11.0-11.0-2.0-0.0","1101","<div><div style=""""><a style=""white-space:pre-wrap;""> while a <= 7:
   a += 9
   a /= 2</a><a style=""""></a></div></div>","16","16","1","81","while a <= 7:
   a += 9
   a /= 2","16","2"
"","html-keyboard-response","401","746681","0.0-11.0-11.0-3.0-0.0","660","<div><div style=""""><a style=""white-space:pre-wrap;""> while a <= 7:
   a += 9
   a /= 2</a><a style=""""></a></div></div>","8","8","1","81","while a <= 7:
   a += 9
   a /= 2","8","3"
