"success","trial_type","trial_index","time_elapsed","internal_node_id","rt","stimulus","response","expected_response","correct","uid","text1","correct_response","loop_step"
"true","fullscreen","0","50292","0.0-0.0","","","","","","","","",""
"","html-keyboard-response","1","54289","0.0-1.0","3994","Please make sure that your keyboard is in English mode. Press 'A' to continue","a","","","","","",""
"","html-keyboard-response","2","55471","0.0-2.0-1.0","1181","<p style=""font-size: 25px;"">Please press space to start the next program<br>>>>>>></p>"," ","","","","","",""
"","html-keyboard-response","3","56848","0.0-2.0-2.0","1375","<div><div style="" font-size:25px; color:green;""><a style=""white-space:pre-wrap;""> a = 7</a><a style=""""></a></div></div>","","null","","1","a = 7","",""
"","html-keyboard-response","4","59817","0.0-2.0-4.0-0.0-0.0","2453","<div><div style=""""><a style=""white-space:pre-wrap;""> for i in [1, 2]:
   a *= 2
   a -= 4</a><a style=""""></a></div></div>","14","14","1","2","for i in [1, 2]:
   a *= 2
   a -= 4","14","0"
"","html-keyboard-response","5","61889","0.0-2.0-4.0-1.0-0.0","1567","<div><div style=""""><a style=""white-space:pre-wrap;""> for i in [1, 2]:
   a *= 2
   a -= 4</a><a style=""""></a></div></div>","10","10","1","2","for i in [1, 2]:
   a *= 2
   a -= 4","10","1"
"","html-keyboard-response","6","64505","0.0-2.0-4.0-2.0-0.0","2109","<div><div style=""""><a style=""white-space:pre-wrap;""> for i in [1, 2]:
   a *= 2
   a -= 4</a><a style=""""></a></div></div>","20","20","1","2","for i in [1, 2]:
   a *= 2
   a -= 4","20","2"
"","html-keyboard-response","7","66217","0.0-2.0-4.0-3.0-0.0","1200","<div><div style=""""><a style=""white-space:pre-wrap;""> for i in [1, 2]:
   a *= 2
   a -= 4</a><a style=""""></a></div></div>","16","16","1","2","for i in [1, 2]:
   a *= 2
   a -= 4","16","3"
"","html-keyboard-response","8","67553","0.0-2.0-4.0-4.0-0.0","831","<div><div style=""""><a style=""white-space:pre-wrap;""> for i in [1, 2]:
   a *= 2
   a -= 4</a><a style=""""></a></div></div>","backspace","backspace","1","2","for i in [1, 2]:
   a *= 2
   a -= 4","backspace","4"
"","html-keyboard-response","9","70809","0.0-2.0-5.0-0.0-0.0","2740","<div><div style=""""><a style=""white-space:pre-wrap;""> for i in [1, 2, 3]:
   a /= 4
   a *= 2</a><a style=""""></a></div></div>","4","4","1","3","for i in [1, 2, 3]:
   a /= 4
   a *= 2","4","0"
"","html-keyboard-response","10","72225","0.0-2.0-5.0-1.0-0.0","913","<div><div style=""""><a style=""white-space:pre-wrap;""> for i in [1, 2, 3]:
   a /= 4
   a *= 2</a><a style=""""></a></div></div>","8","8","1","3","for i in [1, 2, 3]:
   a /= 4
   a *= 2","8","1"
"","html-keyboard-response","11","76505","0.0-2.0-5.0-2.0-0.0","3773","<div><div style=""""><a style=""white-space:pre-wrap;""> for i in [1, 2, 3]:
   a /= 4
   a *= 2</a><a style=""""></a></div></div>","2","2","1","3","for i in [1, 2, 3]:
   a /= 4
   a *= 2","2","2"
"","html-keyboard-response","12","78025","0.0-2.0-5.0-3.0-0.0","1016","<div><div style=""""><a style=""white-space:pre-wrap;""> for i in [1, 2, 3]:
   a /= 4
   a *= 2</a><a style=""""></a></div></div>","4","4","1","3","for i in [1, 2, 3]:
   a /= 4
   a *= 2","4","3"
"","html-keyboard-response","13","81665","0.0-2.0-5.0-4.0-0.0","3128","<div><div style=""""><a style=""white-space:pre-wrap;""> for i in [1, 2, 3]:
   a /= 4
   a *= 2</a><a style=""""></a></div></div>","1","1","1","3","for i in [1, 2, 3]:
   a /= 4
   a *= 2","1","4"
"","html-keyboard-response","14","83289","0.0-2.0-5.0-5.0-0.0","1116","<div><div style=""""><a style=""white-space:pre-wrap;""> for i in [1, 2, 3]:
   a /= 4
   a *= 2</a><a style=""""></a></div></div>","2","2","1","3","for i in [1, 2, 3]:
   a /= 4
   a *= 2","2","5"
"","html-keyboard-response","15","84457","0.0-2.0-5.0-6.0-0.0","661","<div><div style=""""><a style=""white-space:pre-wrap;""> for i in [1, 2, 3]:
   a /= 4
   a *= 2</a><a style=""""></a></div></div>","backspace","backspace","1","3","for i in [1, 2, 3]:
   a /= 4
   a *= 2","backspace","6"
"","html-keyboard-response","16","94777","0.0-2.0-6.0-0.0-0.0","9811","<div><div style=""""><a style=""white-space:pre-wrap;""> while a <= 6:
   a = round_up(a*2.5)</a><a style=""""></a></div></div>","3","5","0","4","while a <= 6:
   a = round_up(a*2.5)","5","0"
"","html-keyboard-response","18","106145","0.0-2.0-6.0-1.0-0.0","7351","<div><div style=""""><a style=""white-space:pre-wrap;""> while a <= 6:
   a = round_up(a*2.5)</a><a style=""""></a></div></div>","13","13","1","4","while a <= 6:
   a = round_up(a*2.5)","13","1"
"","html-keyboard-response","19","107680","0.0-2.0-6.0-2.0-0.0","1027","<div><div style=""""><a style=""white-space:pre-wrap;""> while a <= 6:
   a = round_up(a*2.5)</a><a style=""""></a></div></div>","backspace","backspace","1","4","while a <= 6:
   a = round_up(a*2.5)","backspace","2"
"","html-keyboard-response","20","112591","0.0-2.0-7.0-0.0-0.0","4408","<div><div style=""""><a style=""white-space:pre-wrap;""> for i in [1, 2, 3]:
   a = average(a,5)</a><a style=""""></a></div></div>","9","9","1","5","for i in [1, 2, 3]:
   a = average(a,5)","9","0"
"","html-keyboard-response","21","116705","0.0-2.0-7.0-1.0-0.0","3608","<div><div style=""""><a style=""white-space:pre-wrap;""> for i in [1, 2, 3]:
   a = average(a,5)</a><a style=""""></a></div></div>","7","7","1","5","for i in [1, 2, 3]:
   a = average(a,5)","7","1"
"","html-keyboard-response","22","123296","0.0-2.0-7.0-2.0-0.0","6084","<div><div style=""""><a style=""white-space:pre-wrap;""> for i in [1, 2, 3]:
   a = average(a,5)</a><a style=""""></a></div></div>","6","6","1","5","for i in [1, 2, 3]:
   a = average(a,5)","6","2"
"","html-keyboard-response","23","124384","0.0-2.0-7.0-3.0-0.0","573","<div><div style=""""><a style=""white-space:pre-wrap;""> for i in [1, 2, 3]:
   a = average(a,5)</a><a style=""""></a></div></div>","backspace","backspace","1","5","for i in [1, 2, 3]:
   a = average(a,5)","backspace","3"
"","html-keyboard-response","24","130729","0.0-2.0-8.0-0.0-0.0","5840","<div><div style=""""><a style=""white-space:pre-wrap;""> while a >= 4:
   a += 2
   a /= 2</a><a style=""""></a></div></div>","8","8","1","6","while a >= 4:
   a += 2
   a /= 2","8","0"
"","html-keyboard-response","25","133072","0.0-2.0-8.0-1.0-0.0","1829","<div><div style=""""><a style=""white-space:pre-wrap;""> while a >= 4:
   a += 2
   a /= 2</a><a style=""""></a></div></div>","4","4","1","6","while a >= 4:
   a += 2
   a /= 2","4","1"
"","html-keyboard-response","26","135303","0.0-2.0-8.0-2.0-0.0","1728","<div><div style=""""><a style=""white-space:pre-wrap;""> while a >= 4:
   a += 2
   a /= 2</a><a style=""""></a></div></div>","6","6","1","6","while a >= 4:
   a += 2
   a /= 2","6","2"
"","html-keyboard-response","27","136480","0.0-2.0-8.0-3.0-0.0","674","<div><div style=""""><a style=""white-space:pre-wrap;""> while a >= 4:
   a += 2
   a /= 2</a><a style=""""></a></div></div>","3","3","1","6","while a >= 4:
   a += 2
   a /= 2","3","3"
"","html-keyboard-response","28","137624","0.0-2.0-8.0-4.0-0.0","633","<div><div style=""""><a style=""white-space:pre-wrap;""> while a >= 4:
   a += 2
   a /= 2</a><a style=""""></a></div></div>","backspace","backspace","1","6","while a >= 4:
   a += 2
   a /= 2","backspace","4"
"","html-keyboard-response","29","143712","0.0-2.0-9.0-0.0-0.0","5583","<div><div style=""""><a style=""white-space:pre-wrap;""> while a <= 9:
   a *= 2</a><a style=""""></a></div></div>","6","6","1","7","while a <= 9:
   a *= 2","6","0"
"","html-keyboard-response","30","147936","0.0-2.0-9.0-1.0-0.0","3720","<div><div style=""""><a style=""white-space:pre-wrap;""> while a <= 9:
   a *= 2</a><a style=""""></a></div></div>","12","12","1","7","while a <= 9:
   a *= 2","12","1"
"","html-keyboard-response","31","148880","0.0-2.0-9.0-2.0-0.0","442","<div><div style=""""><a style=""white-space:pre-wrap;""> while a <= 9:
   a *= 2</a><a style=""""></a></div></div>","backspace","backspace","1","7","while a <= 9:
   a *= 2","backspace","2"
"","html-keyboard-response","32","156184","0.0-2.0-10.0-0.0-0.0","6798","<div><div style=""""><a style=""white-space:pre-wrap;""> for i in [1, 2]:
   a += 6
   a -= 4</a><a style=""""></a></div></div>","18","18","1","8","for i in [1, 2]:
   a += 6
   a -= 4","18","0"
"","html-keyboard-response","33","166272","0.0-2.0-10.0-1.0-0.0","9581","<div><div style=""""><a style=""white-space:pre-wrap;""> for i in [1, 2]:
   a += 6
   a -= 4</a><a style=""""></a></div></div>","14","14","1","8","for i in [1, 2]:
   a += 6
   a -= 4","14","1"
"","html-keyboard-response","34","170848","0.0-2.0-10.0-2.0-0.0","4066","<div><div style=""""><a style=""white-space:pre-wrap;""> for i in [1, 2]:
   a += 6
   a -= 4</a><a style=""""></a></div></div>","20","20","1","8","for i in [1, 2]:
   a += 6
   a -= 4","20","2"
"","html-keyboard-response","35","172336","0.0-2.0-10.0-3.0-0.0","987","<div><div style=""""><a style=""white-space:pre-wrap;""> for i in [1, 2]:
   a += 6
   a -= 4</a><a style=""""></a></div></div>","16","16","1","8","for i in [1, 2]:
   a += 6
   a -= 4","16","3"
"","html-keyboard-response","36","173600","0.0-2.0-10.0-4.0-0.0","751","<div><div style=""""><a style=""white-space:pre-wrap;""> for i in [1, 2]:
   a += 6
   a -= 4</a><a style=""""></a></div></div>","backspace","backspace","1","8","for i in [1, 2]:
   a += 6
   a -= 4","backspace","4"
"","html-keyboard-response","37","181080","0.0-2.0-11.0-0.0-0.0","6967","<div><div style=""""><a style=""white-space:pre-wrap;""> for i in [1, 2, 3, 4]:
   a -= 3</a><a style=""""></a></div></div>","17","13","0","9","for i in [1, 2, 3, 4]:
   a -= 3","13","0"
"","html-keyboard-response","39","187311","0.0-2.0-11.0-1.0-0.0","2211","<div><div style=""""><a style=""white-space:pre-wrap;""> for i in [1, 2, 3, 4]:
   a -= 3</a><a style=""""></a></div></div>","7","10","0","9","for i in [1, 2, 3, 4]:
   a -= 3","10","1"
"","html-keyboard-response","41","192912","0.0-2.0-11.0-2.0-0.0","1575","<div><div style=""""><a style=""white-space:pre-wrap;""> for i in [1, 2, 3, 4]:
   a -= 3</a><a style=""""></a></div></div>","7","7","1","9","for i in [1, 2, 3, 4]:
   a -= 3","7","2"
"","html-keyboard-response","42","194855","0.0-2.0-11.0-3.0-0.0","1442","<div><div style=""""><a style=""white-space:pre-wrap;""> for i in [1, 2, 3, 4]:
   a -= 3</a><a style=""""></a></div></div>","4","4","1","9","for i in [1, 2, 3, 4]:
   a -= 3","4","3"
"","html-keyboard-response","43","196375","0.0-2.0-11.0-4.0-0.0","1011","<div><div style=""""><a style=""white-space:pre-wrap;""> for i in [1, 2, 3, 4]:
   a -= 3</a><a style=""""></a></div></div>","backspace","backspace","1","9","for i in [1, 2, 3, 4]:
   a -= 3","backspace","4"
"","html-keyboard-response","44","203456","0.0-3.0-1.0","6573","<p style=""font-size: 25px;"">Please press space to start the next program<br>>>>>>></p>"," ","","","","","",""
"","html-keyboard-response","45","204695","0.0-3.0-2.0","1238","<div><div style="" font-size:25px; color:green;""><a style=""white-space:pre-wrap;""> a = 16</a><a style=""""></a></div></div>","","null","","73","a = 16","",""
"","html-keyboard-response","46","208143","0.0-3.0-4.0-0.0-0.0","2932","<div><div style=""""><a style=""white-space:pre-wrap;""> for i in [1, 2]:
   a /= 2</a><a style=""""></a></div></div>","8","8","1","74","for i in [1, 2]:
   a /= 2","8","0"
"","html-keyboard-response","47","209464","0.0-3.0-4.0-1.0-0.0","818","<div><div style=""""><a style=""white-space:pre-wrap;""> for i in [1, 2]:
   a /= 2</a><a style=""""></a></div></div>","4","4","1","74","for i in [1, 2]:
   a /= 2","4","1"
"","html-keyboard-response","48","210439","0.0-3.0-4.0-2.0-0.0","470","<div><div style=""""><a style=""white-space:pre-wrap;""> for i in [1, 2]:
   a /= 2</a><a style=""""></a></div></div>","backspace","backspace","1","74","for i in [1, 2]:
   a /= 2","backspace","2"
"","html-keyboard-response","49","215328","0.0-3.0-5.0-0.0-0.0","4374","<div><div style=""""><a style=""white-space:pre-wrap;""> while a <= 11:
   a = round_up(a*1.5)</a><a style=""""></a></div></div>","6","6","1","75","while a <= 11:
   a = round_up(a*1.5)","6","0"
"","html-keyboard-response","50","218055","0.0-3.0-5.0-1.0-0.0","2212","<div><div style=""""><a style=""white-space:pre-wrap;""> while a <= 11:
   a = round_up(a*1.5)</a><a style=""""></a></div></div>","9","9","1","75","while a <= 11:
   a = round_up(a*1.5)","9","1"
"","html-keyboard-response","51","225808","0.0-3.0-5.0-2.0-0.0","7243","<div><div style=""""><a style=""white-space:pre-wrap;""> while a <= 11:
   a = round_up(a*1.5)</a><a style=""""></a></div></div>","14","14","1","75","while a <= 11:
   a = round_up(a*1.5)","14","2"
"","html-keyboard-response","52","226951","0.0-3.0-5.0-3.0-0.0","629","<div><div style=""""><a style=""white-space:pre-wrap;""> while a <= 11:
   a = round_up(a*1.5)</a><a style=""""></a></div></div>","backspace","backspace","1","75","while a <= 11:
   a = round_up(a*1.5)","backspace","3"
"","html-keyboard-response","53","232527","0.0-3.0-6.0-0.0-0.0","5067","<div><div style=""""><a style=""white-space:pre-wrap;""> while a >= 13:
   a += 5
   a -= 6</a><a style=""""></a></div></div>","19","19","1","76","while a >= 13:
   a += 5
   a -= 6","19","0"
"","html-keyboard-response","54","235927","0.0-3.0-6.0-1.0-0.0","2894","<div><div style=""""><a style=""white-space:pre-wrap;""> while a >= 13:
   a += 5
   a -= 6</a><a style=""""></a></div></div>","13","13","1","76","while a >= 13:
   a += 5
   a -= 6","13","1"
"","html-keyboard-response","55","240079","0.0-3.0-6.0-2.0-0.0","3645","<div><div style=""""><a style=""white-space:pre-wrap;""> while a >= 13:
   a += 5
   a -= 6</a><a style=""""></a></div></div>","17","18","0","76","while a >= 13:
   a += 5
   a -= 6","18","2"
"","html-keyboard-response","57","244455","0.0-3.0-6.0-3.0-0.0","356","<div><div style=""""><a style=""white-space:pre-wrap;""> while a >= 13:
   a += 5
   a -= 6</a><a style=""""></a></div></div>","12","12","1","76","while a >= 13:
   a += 5
   a -= 6","12","3"
"","html-keyboard-response","58","246368","0.0-3.0-6.0-4.0-0.0","1408","<div><div style=""""><a style=""white-space:pre-wrap;""> while a >= 13:
   a += 5
   a -= 6</a><a style=""""></a></div></div>","backspace","backspace","1","76","while a >= 13:
   a += 5
   a -= 6","backspace","4"
"","html-keyboard-response","59","253255","0.0-3.0-7.0-0.0-0.0","6379","<div><div style=""""><a style=""white-space:pre-wrap;""> for i in [1, 2, 3]:
   a = average(a,4)</a><a style=""""></a></div></div>","8","8","1","77","for i in [1, 2, 3]:
   a = average(a,4)","8","0"
"","html-keyboard-response","60","258016","0.0-3.0-7.0-1.0-0.0","4253","<div><div style=""""><a style=""white-space:pre-wrap;""> for i in [1, 2, 3]:
   a = average(a,4)</a><a style=""""></a></div></div>","6","6","1","77","for i in [1, 2, 3]:
   a = average(a,4)","6","1"
"","html-keyboard-response","61","260374","0.0-3.0-7.0-2.0-0.0","1844","<div><div style=""""><a style=""white-space:pre-wrap;""> for i in [1, 2, 3]:
   a = average(a,4)</a><a style=""""></a></div></div>","5","5","1","77","for i in [1, 2, 3]:
   a = average(a,4)","5","2"
"","html-keyboard-response","62","262367","0.0-3.0-7.0-3.0-0.0","1480","<div><div style=""""><a style=""white-space:pre-wrap;""> for i in [1, 2, 3]:
   a = average(a,4)</a><a style=""""></a></div></div>","backspace","backspace","1","77","for i in [1, 2, 3]:
   a = average(a,4)","backspace","3"
"","html-keyboard-response","63","267919","0.0-3.0-8.0-0.0-0.0","5049","<div><div style=""""><a style=""white-space:pre-wrap;""> for i in [1, 2]:
   a *= 3
   a -= 11</a><a style=""""></a></div></div>","15","15","1","78","for i in [1, 2]:
   a *= 3
   a -= 11","15","0"
"","html-keyboard-response","64","273639","0.0-3.0-8.0-1.0-0.0","5209","<div><div style=""""><a style=""white-space:pre-wrap;""> for i in [1, 2]:
   a *= 3
   a -= 11</a><a style=""""></a></div></div>","4","4","1","78","for i in [1, 2]:
   a *= 3
   a -= 11","4","1"
"","html-keyboard-response","65","276303","0.0-3.0-8.0-2.0-0.0","2153","<div><div style=""""><a style=""white-space:pre-wrap;""> for i in [1, 2]:
   a *= 3
   a -= 11</a><a style=""""></a></div></div>","12","12","1","78","for i in [1, 2]:
   a *= 3
   a -= 11","12","2"
"","html-keyboard-response","66","278088","0.0-3.0-8.0-3.0-0.0","1271","<div><div style=""""><a style=""white-space:pre-wrap;""> for i in [1, 2]:
   a *= 3
   a -= 11</a><a style=""""></a></div></div>","1","1","1","78","for i in [1, 2]:
   a *= 3
   a -= 11","1","3"
"","html-keyboard-response","67","279294","0.0-3.0-8.0-4.0-0.0","694","<div><div style=""""><a style=""white-space:pre-wrap;""> for i in [1, 2]:
   a *= 3
   a -= 11</a><a style=""""></a></div></div>","backspace","backspace","1","78","for i in [1, 2]:
   a *= 3
   a -= 11","backspace","4"
"","html-keyboard-response","68","281687","0.0-3.0-9.0-0.0-0.0","1886","<div><div style=""""><a style=""white-space:pre-wrap;""> for i in [1, 2]:
   a *= 6
   a /= 2</a><a style=""""></a></div></div>","6","6","1","79","for i in [1, 2]:
   a *= 6
   a /= 2","6","0"
"","html-keyboard-response","69","282903","0.0-3.0-9.0-1.0-0.0","708","<div><div style=""""><a style=""white-space:pre-wrap;""> for i in [1, 2]:
   a *= 6
   a /= 2</a><a style=""""></a></div></div>","3","3","1","79","for i in [1, 2]:
   a *= 6
   a /= 2","3","1"
"","html-keyboard-response","70","284039","0.0-3.0-9.0-2.0-0.0","625","<div><div style=""""><a style=""white-space:pre-wrap;""> for i in [1, 2]:
   a *= 6
   a /= 2</a><a style=""""></a></div></div>","backspace","18","0","79","for i in [1, 2]:
   a *= 6
   a /= 2","18","2"
"","html-keyboard-response","72","288519","0.0-3.0-9.0-3.0-0.0","460","<div><div style=""""><a style=""white-space:pre-wrap;""> for i in [1, 2]:
   a *= 6
   a /= 2</a><a style=""""></a></div></div>","9","9","1","79","for i in [1, 2]:
   a *= 6
   a /= 2","9","3"
"","html-keyboard-response","73","291079","0.0-3.0-9.0-4.0-0.0","2053","<div><div style=""""><a style=""white-space:pre-wrap;""> for i in [1, 2]:
   a *= 6
   a /= 2</a><a style=""""></a></div></div>","backspace","backspace","1","79","for i in [1, 2]:
   a *= 6
   a /= 2","backspace","4"
"","html-keyboard-response","74","295639","0.0-3.0-10.0-0.0-0.0","4049","<div><div style=""""><a style=""white-space:pre-wrap;""> while a >= 7:
   a -= 2</a><a style=""""></a></div></div>","7","7","1","80","while a >= 7:
   a -= 2","7","0"
"","html-keyboard-response","75","297551","0.0-3.0-10.0-1.0-0.0","1398","<div><div style=""""><a style=""white-space:pre-wrap;""> while a >= 7:
   a -= 2</a><a style=""""></a></div></div>","5","5","1","80","while a >= 7:
   a -= 2","5","1"
"","html-keyboard-response","76","298598","0.0-3.0-10.0-2.0-0.0","540","<div><div style=""""><a style=""white-space:pre-wrap;""> while a >= 7:
   a -= 2</a><a style=""""></a></div></div>","backspace","backspace","1","80","while a >= 7:
   a -= 2","backspace","2"
"","html-keyboard-response","77","305406","0.0-3.0-11.0-0.0-0.0","6304","<div><div style=""""><a style=""white-space:pre-wrap;""> while a <= 7:
   a += 9
   a /= 2</a><a style=""""></a></div></div>","14","14","1","81","while a <= 7:
   a += 9
   a /= 2","14","0"
"","html-keyboard-response","78","307398","0.0-3.0-11.0-1.0-0.0","1487","<div><div style=""""><a style=""white-space:pre-wrap;""> while a <= 7:
   a += 9
   a /= 2</a><a style=""""></a></div></div>","7","7","1","81","while a <= 7:
   a += 9
   a /= 2","7","1"
"","html-keyboard-response","79","314126","0.0-3.0-11.0-2.0-0.0","6221","<div><div style=""""><a style=""white-space:pre-wrap;""> while a <= 7:
   a += 9
   a /= 2</a><a style=""""></a></div></div>","18","16","0","81","while a <= 7:
   a += 9
   a /= 2","16","2"
"","html-keyboard-response","81","318551","0.0-3.0-11.0-3.0-0.0","404","<div><div style=""""><a style=""white-space:pre-wrap;""> while a <= 7:
   a += 9
   a /= 2</a><a style=""""></a></div></div>","8","8","1","81","while a <= 7:
   a += 9
   a /= 2","8","3"
"","html-keyboard-response","82","322429","0.0-3.0-11.0-4.0-0.0","3363","<div><div style=""""><a style=""white-space:pre-wrap;""> while a <= 7:
   a += 9
   a /= 2</a><a style=""""></a></div></div>","backspace","backspace","1","81","while a <= 7:
   a += 9
   a /= 2","backspace","4"
"","html-keyboard-response","83","366943","0.0-4.0-0.0-0.0","44007","<p style=""position:absolute; top:30%; font-size:25px; color:green;"" >Take a short break now</p>"," ","","","","","",""
"","html-keyboard-response","84","368446","0.0-4.0-1.0","1502","<p style=""font-size: 25px;"">Please press space to start the next program<br>>>>>>></p>"," ","","","","","",""
"","html-keyboard-response","85","369839","0.0-4.0-2.0","1391","<div><div style="" font-size:25px; color:green;""><a style=""white-space:pre-wrap;""> a = 8</a><a style=""""></a></div></div>","","null","","46","a = 8","",""
"","html-keyboard-response","86","373694","0.0-4.0-4.0-0.0-0.0","3339","<div><div style=""""><a style=""white-space:pre-wrap;""> while a <= 17:
   a -= 2
   a += 6</a><a style=""""></a></div></div>","6","6","1","47","while a <= 17:
   a -= 2
   a += 6","6","0"
"","html-keyboard-response","87","376478","0.0-4.0-4.0-1.0-0.0","2273","<div><div style=""""><a style=""white-space:pre-wrap;""> while a <= 17:
   a -= 2
   a += 6</a><a style=""""></a></div></div>","12","12","1","47","while a <= 17:
   a -= 2
   a += 6","12","1"
"","html-keyboard-response","88","379111","0.0-4.0-4.0-2.0-0.0","2129","<div><div style=""""><a style=""white-space:pre-wrap;""> while a <= 17:
   a -= 2
   a += 6</a><a style=""""></a></div></div>","10","10","1","47","while a <= 17:
   a -= 2
   a += 6","10","2"
"","html-keyboard-response","89","381398","0.0-4.0-4.0-3.0-0.0","1781","<div><div style=""""><a style=""white-space:pre-wrap;""> while a <= 17:
   a -= 2
   a += 6</a><a style=""""></a></div></div>","16","16","1","47","while a <= 17:
   a -= 2
   a += 6","16","3"
"","html-keyboard-response","90","386958","0.0-4.0-4.0-4.0-0.0","5048","<div><div style=""""><a style=""white-space:pre-wrap;""> while a <= 17:
   a -= 2
   a += 6</a><a style=""""></a></div></div>","14","14","1","47","while a <= 17:
   a -= 2
   a += 6","14","4"
"","html-keyboard-response","91","388823","0.0-4.0-4.0-5.0-0.0","1355","<div><div style=""""><a style=""white-space:pre-wrap;""> while a <= 17:
   a -= 2
   a += 6</a><a style=""""></a></div></div>","20","20","1","47","while a <= 17:
   a -= 2
   a += 6","20","5"
"","html-keyboard-response","92","390110","0.0-4.0-4.0-6.0-0.0","772","<div><div style=""""><a style=""white-space:pre-wrap;""> while a <= 17:
   a -= 2
   a += 6</a><a style=""""></a></div></div>","backspace","backspace","1","47","while a <= 17:
   a -= 2
   a += 6","backspace","6"
"","html-keyboard-response","93","395366","0.0-4.0-5.0-0.0-0.0","4751","<div><div style=""""><a style=""white-space:pre-wrap;""> while a >= 8:
   a /= 2</a><a style=""""></a></div></div>","10","10","1","48","while a >= 8:
   a /= 2","10","0"
"","html-keyboard-response","94","397183","0.0-4.0-5.0-1.0-0.0","1304","<div><div style=""""><a style=""white-space:pre-wrap;""> while a >= 8:
   a /= 2</a><a style=""""></a></div></div>","5","5","1","48","while a >= 8:
   a /= 2","5","1"
"","html-keyboard-response","95","398206","0.0-4.0-5.0-2.0-0.0","518","<div><div style=""""><a style=""white-space:pre-wrap;""> while a >= 8:
   a /= 2</a><a style=""""></a></div></div>","backspace","backspace","1","48","while a >= 8:
   a /= 2","backspace","2"
"","html-keyboard-response","96","405423","0.0-4.0-6.0-0.0-0.0","6704","<div><div style=""""><a style=""white-space:pre-wrap;""> for i in [1, 2, 3]:
   a = round_up(a*1.5)</a><a style=""""></a></div></div>","8","8","1","49","for i in [1, 2, 3]:
   a = round_up(a*1.5)","8","0"
"","html-keyboard-response","97","413887","0.0-4.0-6.0-1.0-0.0","7961","<div><div style=""""><a style=""white-space:pre-wrap;""> for i in [1, 2, 3]:
   a = round_up(a*1.5)</a><a style=""""></a></div></div>","12","12","1","49","for i in [1, 2, 3]:
   a = round_up(a*1.5)","12","1"
"","html-keyboard-response","98","418767","0.0-4.0-6.0-2.0-0.0","4369","<div><div style=""""><a style=""white-space:pre-wrap;""> for i in [1, 2, 3]:
   a = round_up(a*1.5)</a><a style=""""></a></div></div>","18","18","1","49","for i in [1, 2, 3]:
   a = round_up(a*1.5)","18","2"
"","html-keyboard-response","99","420389","0.0-4.0-6.0-3.0-0.0","1119","<div><div style=""""><a style=""white-space:pre-wrap;""> for i in [1, 2, 3]:
   a = round_up(a*1.5)</a><a style=""""></a></div></div>","backspace","backspace","1","49","for i in [1, 2, 3]:
   a = round_up(a*1.5)","backspace","3"
"","html-keyboard-response","100","428622","0.0-4.0-7.0-0.0-0.0","7728","<div><div style=""""><a style=""white-space:pre-wrap;""> while a >= 4:
   a = average(a,2)</a><a style=""""></a></div></div>","8","10","0","50","while a >= 4:
   a = average(a,2)","10","0"
"","html-keyboard-response","102","433679","0.0-4.0-7.0-1.0-0.0","1034","<div><div style=""""><a style=""white-space:pre-wrap;""> while a >= 4:
   a = average(a,2)</a><a style=""""></a></div></div>","6","6","1","50","while a >= 4:
   a = average(a,2)","6","1"
"","html-keyboard-response","103","440207","0.0-4.0-7.0-2.0-0.0","6018","<div><div style=""""><a style=""white-space:pre-wrap;""> while a >= 4:
   a = average(a,2)</a><a style=""""></a></div></div>","5","4","0","50","while a >= 4:
   a = average(a,2)","4","2"
"","html-keyboard-response","105","446351","0.0-4.0-7.0-3.0-0.0","2132","<div><div style=""""><a style=""white-space:pre-wrap;""> while a >= 4:
   a = average(a,2)</a><a style=""""></a></div></div>","3","3","1","50","while a >= 4:
   a = average(a,2)","3","3"
"","html-keyboard-response","106","448350","0.0-4.0-7.0-4.0-0.0","1493","<div><div style=""""><a style=""white-space:pre-wrap;""> while a >= 4:
   a = average(a,2)</a><a style=""""></a></div></div>","backspace","backspace","1","50","while a >= 4:
   a = average(a,2)","backspace","4"
"","html-keyboard-response","107","453894","0.0-4.0-8.0-0.0-0.0","5027","<div><div style=""""><a style=""white-space:pre-wrap;""> while a <= 5:
   a += 7
   a /= 2</a><a style=""""></a></div></div>","10","10","1","51","while a <= 5:
   a += 7
   a /= 2","10","0"
"","html-keyboard-response","108","455446","0.0-4.0-8.0-1.0-0.0","1040","<div><div style=""""><a style=""white-space:pre-wrap;""> while a <= 5:
   a += 7
   a /= 2</a><a style=""""></a></div></div>","5","5","1","51","while a <= 5:
   a += 7
   a /= 2","5","1"
"","html-keyboard-response","109","457887","0.0-4.0-8.0-2.0-0.0","1934","<div><div style=""""><a style=""white-space:pre-wrap;""> while a <= 5:
   a += 7
   a /= 2</a><a style=""""></a></div></div>","12","12","1","51","while a <= 5:
   a += 7
   a /= 2","12","2"
"","html-keyboard-response","110","461174","0.0-4.0-8.0-3.0-0.0","2786","<div><div style=""""><a style=""white-space:pre-wrap;""> while a <= 5:
   a += 7
   a /= 2</a><a style=""""></a></div></div>","6","6","1","51","while a <= 5:
   a += 7
   a /= 2","6","3"
"","html-keyboard-response","111","462334","0.0-4.0-8.0-4.0-0.0","656","<div><div style=""""><a style=""white-space:pre-wrap;""> while a <= 5:
   a += 7
   a /= 2</a><a style=""""></a></div></div>","backspace","backspace","1","51","while a <= 5:
   a += 7
   a /= 2","backspace","4"
"","html-keyboard-response","112","466110","0.0-4.0-9.0-0.0-0.0","3271","<div><div style=""""><a style=""white-space:pre-wrap;""> for i in [1, 2, 3, 4]:
   a += 3</a><a style=""""></a></div></div>","9","9","1","52","for i in [1, 2, 3, 4]:
   a += 3","9","0"
"","html-keyboard-response","113","468343","0.0-4.0-9.0-1.0-0.0","1725","<div><div style=""""><a style=""white-space:pre-wrap;""> for i in [1, 2, 3, 4]:
   a += 3</a><a style=""""></a></div></div>","12","12","1","52","for i in [1, 2, 3, 4]:
   a += 3","12","1"
"","html-keyboard-response","114","469702","0.0-4.0-9.0-2.0-0.0","844","<div><div style=""""><a style=""white-space:pre-wrap;""> for i in [1, 2, 3, 4]:
   a += 3</a><a style=""""></a></div></div>","15","15","1","52","for i in [1, 2, 3, 4]:
   a += 3","15","2"
"","html-keyboard-response","115","470902","0.0-4.0-9.0-3.0-0.0","691","<div><div style=""""><a style=""white-space:pre-wrap;""> for i in [1, 2, 3, 4]:
   a += 3</a><a style=""""></a></div></div>","18","18","1","52","for i in [1, 2, 3, 4]:
   a += 3","18","3"
"","html-keyboard-response","116","472317","0.0-4.0-9.0-4.0-0.0","907","<div><div style=""""><a style=""white-space:pre-wrap;""> for i in [1, 2, 3, 4]:
   a += 3</a><a style=""""></a></div></div>","backspace","backspace","1","52","for i in [1, 2, 3, 4]:
   a += 3","backspace","4"
"","html-keyboard-response","117","478582","0.0-4.0-10.0-0.0-0.0","5763","<div><div style=""""><a style=""white-space:pre-wrap;""> while a >= 12:
   a /= 3
   a *= 2</a><a style=""""></a></div></div>","6","6","1","53","while a >= 12:
   a /= 3
   a *= 2","6","0"
"","html-keyboard-response","118","480294","0.0-4.0-10.0-1.0-0.0","1208","<div><div style=""""><a style=""white-space:pre-wrap;""> while a >= 12:
   a /= 3
   a *= 2</a><a style=""""></a></div></div>","12","12","1","53","while a >= 12:
   a /= 3
   a *= 2","12","1"
"","html-keyboard-response","119","482478","0.0-4.0-10.0-2.0-0.0","1679","<div><div style=""""><a style=""white-space:pre-wrap;""> while a >= 12:
   a /= 3
   a *= 2</a><a style=""""></a></div></div>","4","4","1","53","while a >= 12:
   a /= 3
   a *= 2","4","2"
"","html-keyboard-response","120","484277","0.0-4.0-10.0-3.0-0.0","1293","<div><div style=""""><a style=""white-space:pre-wrap;""> while a >= 12:
   a /= 3
   a *= 2</a><a style=""""></a></div></div>","8","8","1","53","while a >= 12:
   a /= 3
   a *= 2","8","3"
"","html-keyboard-response","121","485437","0.0-4.0-10.0-4.0-0.0","652","<div><div style=""""><a style=""white-space:pre-wrap;""> while a >= 12:
   a /= 3
   a *= 2</a><a style=""""></a></div></div>","backspace","backspace","1","53","while a >= 12:
   a /= 3
   a *= 2","backspace","4"
"","html-keyboard-response","122","494069","0.0-4.0-11.0-0.0-0.0","8129","<div><div style=""""><a style=""white-space:pre-wrap;""> while a >= 3:
   a *= 2
   a -= 9</a><a style=""""></a></div></div>","16","16","1","54","while a >= 3:
   a *= 2
   a -= 9","16","0"
"","html-keyboard-response","123","497085","0.0-4.0-11.0-1.0-0.0","2502","<div><div style=""""><a style=""white-space:pre-wrap;""> while a >= 3:
   a *= 2
   a -= 9</a><a style=""""></a></div></div>","7","7","1","54","while a >= 3:
   a *= 2
   a -= 9","7","1"
"","html-keyboard-response","124","499398","0.0-4.0-11.0-2.0-0.0","1804","<div><div style=""""><a style=""white-space:pre-wrap;""> while a >= 3:
   a *= 2
   a -= 9</a><a style=""""></a></div></div>","14","14","1","54","while a >= 3:
   a *= 2
   a -= 9","14","2"
"","html-keyboard-response","125","504374","0.0-4.0-11.0-3.0-0.0","4471","<div><div style=""""><a style=""white-space:pre-wrap;""> while a >= 3:
   a *= 2
   a -= 9</a><a style=""""></a></div></div>","5","5","1","54","while a >= 3:
   a *= 2
   a -= 9","5","3"
"","html-keyboard-response","126","508806","0.0-4.0-11.0-4.0-0.0","3931","<div><div style=""""><a style=""white-space:pre-wrap;""> while a >= 3:
   a *= 2
   a -= 9</a><a style=""""></a></div></div>","10","10","1","54","while a >= 3:
   a *= 2
   a -= 9","10","4"
"","html-keyboard-response","127","510174","0.0-4.0-11.0-5.0-0.0","863","<div><div style=""""><a style=""white-space:pre-wrap;""> while a >= 3:
   a *= 2
   a -= 9</a><a style=""""></a></div></div>","1","1","1","54","while a >= 3:
   a *= 2
   a -= 9","1","5"
"","html-keyboard-response","128","511334","0.0-4.0-11.0-6.0-0.0","658","<div><div style=""""><a style=""white-space:pre-wrap;""> while a >= 3:
   a *= 2
   a -= 9</a><a style=""""></a></div></div>","backspace","backspace","1","54","while a >= 3:
   a *= 2
   a -= 9","backspace","6"
"","html-keyboard-response","129","513445","0.0-5.0-1.0","1595","<p style=""font-size: 25px;"">Please press space to start the next program<br>>>>>>></p>"," ","","","","","",""
"","html-keyboard-response","130","516254","0.0-5.0-2.0","2809","<div><div style="" font-size:25px; color:green;""><a style=""white-space:pre-wrap;""> a = 11</a><a style=""""></a></div></div>","","null","","55","a = 11","",""
"","html-keyboard-response","131","521494","0.0-5.0-4.0-0.0-0.0","4729","<div><div style=""""><a style=""white-space:pre-wrap;""> while a >= 5:
   a += 4
   a /= 3</a><a style=""""></a></div></div>","15","15","1","56","while a >= 5:
   a += 4
   a /= 3","15","0"
"","html-keyboard-response","132","523837","0.0-5.0-4.0-1.0-0.0","1833","<div><div style=""""><a style=""white-space:pre-wrap;""> while a >= 5:
   a += 4
   a /= 3</a><a style=""""></a></div></div>","5","5","1","56","while a >= 5:
   a += 4
   a /= 3","5","1"
"","html-keyboard-response","133","527758","0.0-5.0-4.0-2.0-0.0","3414","<div><div style=""""><a style=""white-space:pre-wrap;""> while a >= 5:
   a += 4
   a /= 3</a><a style=""""></a></div></div>","9","9","1","56","while a >= 5:
   a += 4
   a /= 3","9","2"
"","html-keyboard-response","134","528910","0.0-5.0-4.0-3.0-0.0","647","<div><div style=""""><a style=""white-space:pre-wrap;""> while a >= 5:
   a += 4
   a /= 3</a><a style=""""></a></div></div>","3","3","1","56","while a >= 5:
   a += 4
   a /= 3","3","3"
"","html-keyboard-response","135","536014","0.0-5.0-4.0-4.0-0.0","6591","<div><div style=""""><a style=""white-space:pre-wrap;""> while a >= 5:
   a += 4
   a /= 3</a><a style=""""></a></div></div>","backspace","backspace","1","56","while a >= 5:
   a += 4
   a /= 3","backspace","4"
"","html-keyboard-response","136","544238","0.0-5.0-5.0-0.0-0.0","7722","<div><div style=""""><a style=""white-space:pre-wrap;""> for i in [1, 2]:
   a = round_down(a*2.5)</a><a style=""""></a></div></div>","5","7","0","57","for i in [1, 2]:
   a = round_down(a*2.5)","7","0"
"","html-keyboard-response","138","553380","0.0-5.0-5.0-1.0-0.0","5124","<div><div style=""""><a style=""white-space:pre-wrap;""> for i in [1, 2]:
   a = round_down(a*2.5)</a><a style=""""></a></div></div>","11","17","0","57","for i in [1, 2]:
   a = round_down(a*2.5)","17","1"
"","html-keyboard-response","140","559429","0.0-5.0-5.0-2.0-0.0","2035","<div><div style=""""><a style=""white-space:pre-wrap;""> for i in [1, 2]:
   a = round_down(a*2.5)</a><a style=""""></a></div></div>","backspace","backspace","1","57","for i in [1, 2]:
   a = round_down(a*2.5)","backspace","2"
"","html-keyboard-response","141","566087","0.0-5.0-6.0-0.0-0.0","6149","<div><div style=""""><a style=""white-space:pre-wrap;""> for i in [1, 2, 3, 4]:
   a = average(a,1)</a><a style=""""></a></div></div>","9","9","1","58","for i in [1, 2, 3, 4]:
   a = average(a,1)","9","0"
"","html-keyboard-response","142","570342","0.0-5.0-6.0-1.0-0.0","3743","<div><div style=""""><a style=""white-space:pre-wrap;""> for i in [1, 2, 3, 4]:
   a = average(a,1)</a><a style=""""></a></div></div>","5","5","1","58","for i in [1, 2, 3, 4]:
   a = average(a,1)","5","1"
"","html-keyboard-response","143","572982","0.0-5.0-6.0-2.0-0.0","2124","<div><div style=""""><a style=""white-space:pre-wrap;""> for i in [1, 2, 3, 4]:
   a = average(a,1)</a><a style=""""></a></div></div>","3","3","1","58","for i in [1, 2, 3, 4]:
   a = average(a,1)","3","2"
"","html-keyboard-response","144","576094","0.0-5.0-6.0-3.0-0.0","2598","<div><div style=""""><a style=""white-space:pre-wrap;""> for i in [1, 2, 3, 4]:
   a = average(a,1)</a><a style=""""></a></div></div>","2","2","1","58","for i in [1, 2, 3, 4]:
   a = average(a,1)","2","3"
"","html-keyboard-response","145","577940","0.0-5.0-6.0-4.0-0.0","1340","<div><div style=""""><a style=""white-space:pre-wrap;""> for i in [1, 2, 3, 4]:
   a = average(a,1)</a><a style=""""></a></div></div>","backspace","backspace","1","58","for i in [1, 2, 3, 4]:
   a = average(a,1)","backspace","4"
"","html-keyboard-response","146","583333","0.0-5.0-7.0-0.0-0.0","4876","<div><div style=""""><a style=""white-space:pre-wrap;""> for i in [1, 2]:
   a *= 3
   a -= 1</a><a style=""""></a></div></div>","6","6","1","59","for i in [1, 2]:
   a *= 3
   a -= 1","6","0"
"","html-keyboard-response","147","585269","0.0-5.0-7.0-1.0-0.0","1429","<div><div style=""""><a style=""white-space:pre-wrap;""> for i in [1, 2]:
   a *= 3
   a -= 1</a><a style=""""></a></div></div>","5","5","1","59","for i in [1, 2]:
   a *= 3
   a -= 1","5","1"
"","html-keyboard-response","148","587998","0.0-5.0-7.0-2.0-0.0","2227","<div><div style=""""><a style=""white-space:pre-wrap;""> for i in [1, 2]:
   a *= 3
   a -= 1</a><a style=""""></a></div></div>","18","15","0","59","for i in [1, 2]:
   a *= 3
   a -= 1","15","2"
"","html-keyboard-response","150","594054","0.0-5.0-7.0-3.0-0.0","2045","<div><div style=""""><a style=""white-space:pre-wrap;""> for i in [1, 2]:
   a *= 3
   a -= 1</a><a style=""""></a></div></div>","14","14","1","59","for i in [1, 2]:
   a *= 3
   a -= 1","14","3"
"","html-keyboard-response","151","595581","0.0-5.0-7.0-4.0-0.0","1016","<div><div style=""""><a style=""white-space:pre-wrap;""> for i in [1, 2]:
   a *= 3
   a -= 1</a><a style=""""></a></div></div>","backspace","backspace","1","59","for i in [1, 2]:
   a *= 3
   a -= 1","backspace","4"
"","html-keyboard-response","152","600093","0.0-5.0-8.0-0.0-0.0","4002","<div><div style=""""><a style=""white-space:pre-wrap;""> while a >= 4:
   a -= 5
   a += 1</a><a style=""""></a></div></div>","9","9","1","60","while a >= 4:
   a -= 5
   a += 1","9","0"
"","html-keyboard-response","153","601582","0.0-5.0-8.0-1.0-0.0","981","<div><div style=""""><a style=""white-space:pre-wrap;""> while a >= 4:
   a -= 5
   a += 1</a><a style=""""></a></div></div>","10","10","1","60","while a >= 4:
   a -= 5
   a += 1","10","1"
"","html-keyboard-response","154","605502","0.0-5.0-8.0-2.0-0.0","3407","<div><div style=""""><a style=""white-space:pre-wrap;""> while a >= 4:
   a -= 5
   a += 1</a><a style=""""></a></div></div>","5","5","1","60","while a >= 4:
   a -= 5
   a += 1","5","2"
"","html-keyboard-response","155","606965","0.0-5.0-8.0-3.0-0.0","949","<div><div style=""""><a style=""white-space:pre-wrap;""> while a >= 4:
   a -= 5
   a += 1</a><a style=""""></a></div></div>","6","6","1","60","while a >= 4:
   a -= 5
   a += 1","6","3"
"","html-keyboard-response","156","609877","0.0-5.0-8.0-4.0-0.0","2407","<div><div style=""""><a style=""white-space:pre-wrap;""> while a >= 4:
   a -= 5
   a += 1</a><a style=""""></a></div></div>","1","1","1","60","while a >= 4:
   a -= 5
   a += 1","1","4"
"","html-keyboard-response","157","611341","0.0-5.0-8.0-5.0-0.0","956","<div><div style=""""><a style=""white-space:pre-wrap;""> while a >= 4:
   a -= 5
   a += 1</a><a style=""""></a></div></div>","2","2","1","60","while a >= 4:
   a -= 5
   a += 1","2","5"
"","html-keyboard-response","158","612413","0.0-5.0-8.0-6.0-0.0","564","<div><div style=""""><a style=""white-space:pre-wrap;""> while a >= 4:
   a -= 5
   a += 1</a><a style=""""></a></div></div>","backspace","backspace","1","60","while a >= 4:
   a -= 5
   a += 1","backspace","6"
"","html-keyboard-response","159","617702","0.0-5.0-9.0-0.0-0.0","4777","<div><div style=""""><a style=""white-space:pre-wrap;""> while a <= 15:
   a *= 3</a><a style=""""></a></div></div>","6","6","1","61","while a <= 15:
   a *= 3","6","0"
"","html-keyboard-response","160","623045","0.0-5.0-9.0-1.0-0.0","4839","<div><div style=""""><a style=""white-space:pre-wrap;""> while a <= 15:
   a *= 3</a><a style=""""></a></div></div>","18","18","1","61","while a <= 15:
   a *= 3","18","1"
"","html-keyboard-response","161","624125","0.0-5.0-9.0-2.0-0.0","573","<div><div style=""""><a style=""white-space:pre-wrap;""> while a <= 15:
   a *= 3</a><a style=""""></a></div></div>","backspace","backspace","1","61","while a <= 15:
   a *= 3","backspace","2"
"","html-keyboard-response","162","628982","0.0-5.0-10.0-0.0-0.0","4355","<div><div style=""""><a style=""white-space:pre-wrap;""> while a >= 11:
   a /= 3
   a *= 2</a><a style=""""></a></div></div>","6","6","1","62","while a >= 11:
   a /= 3
   a *= 2","6","0"
"","html-keyboard-response","163","631949","0.0-5.0-10.0-1.0-0.0","2463","<div><div style=""""><a style=""white-space:pre-wrap;""> while a >= 11:
   a /= 3
   a *= 2</a><a style=""""></a></div></div>","12","12","1","62","while a >= 11:
   a /= 3
   a *= 2","12","1"
"","html-keyboard-response","164","640533","0.0-5.0-10.0-2.0-0.0","8074","<div><div style=""""><a style=""white-space:pre-wrap;""> while a >= 11:
   a /= 3
   a *= 2</a><a style=""""></a></div></div>","4","4","1","62","while a >= 11:
   a /= 3
   a *= 2","4","2"
"","html-keyboard-response","165","643101","0.0-5.0-10.0-3.0-0.0","2054","<div><div style=""""><a style=""white-space:pre-wrap;""> while a >= 11:
   a /= 3
   a *= 2</a><a style=""""></a></div></div>","8","8","1","62","while a >= 11:
   a /= 3
   a *= 2","8","3"
"","html-keyboard-response","166","653268","0.0-5.0-10.0-4.0-0.0","9659","<div><div style=""""><a style=""white-space:pre-wrap;""> while a >= 11:
   a /= 3
   a *= 2</a><a style=""""></a></div></div>","backspace","backspace","1","62","while a >= 11:
   a /= 3
   a *= 2","backspace","4"
"","html-keyboard-response","167","656796","0.0-5.0-11.0-0.0-0.0","3024","<div><div style=""""><a style=""white-space:pre-wrap;""> for i in [1, 2, 3]:
   a += 4</a><a style=""""></a></div></div>","8","12","0","63","for i in [1, 2, 3]:
   a += 4","12","0"
"","html-keyboard-response","169","661141","0.0-5.0-11.0-1.0-0.0","320","<div><div style=""""><a style=""white-space:pre-wrap;""> for i in [1, 2, 3]:
   a += 4</a><a style=""""></a></div></div>","16","16","1","63","for i in [1, 2, 3]:
   a += 4","16","1"
"","html-keyboard-response","170","662558","0.0-5.0-11.0-2.0-0.0","910","<div><div style=""""><a style=""white-space:pre-wrap;""> for i in [1, 2, 3]:
   a += 4</a><a style=""""></a></div></div>","20","20","1","63","for i in [1, 2, 3]:
   a += 4","20","2"
"","html-keyboard-response","171","663701","0.0-5.0-11.0-3.0-0.0","628","<div><div style=""""><a style=""white-space:pre-wrap;""> for i in [1, 2, 3]:
   a += 4</a><a style=""""></a></div></div>","backspace","backspace","1","63","for i in [1, 2, 3]:
   a += 4","backspace","3"
"","html-keyboard-response","172","758685","0.0-6.0-0.0-0.0","94475","<p style=""position:absolute; top:30%; font-size:25px; color:green;"" >Take a short break now</p>"," ","","","","","",""
"","html-keyboard-response","173","760604","0.0-6.0-1.0","1918","<p style=""font-size: 25px;"">Please press space to start the next program<br>>>>>>></p>"," ","","","","","",""
"","html-keyboard-response","174","762268","0.0-6.0-2.0","1663","<div><div style="" font-size:25px; color:green;""><a style=""white-space:pre-wrap;""> a = 8</a><a style=""""></a></div></div>","","null","","37","a = 8","",""
"","html-keyboard-response","175","765683","0.0-6.0-4.0-0.0-0.0","2901","<div><div style=""""><a style=""white-space:pre-wrap;""> for i in [1, 2, 3]:
   a -= 2
   a += 6</a><a style=""""></a></div></div>","6","6","1","38","for i in [1, 2, 3]:
   a -= 2
   a += 6","6","0"
"","html-keyboard-response","176","766612","0.0-6.0-4.0-1.0-0.0","419","<div><div style=""""><a style=""white-space:pre-wrap;""> for i in [1, 2, 3]:
   a -= 2
   a += 6</a><a style=""""></a></div></div>","12","12","1","38","for i in [1, 2, 3]:
   a -= 2
   a += 6","12","1"
"","html-keyboard-response","177","768148","0.0-6.0-4.0-2.0-0.0","1032","<div><div style=""""><a style=""white-space:pre-wrap;""> for i in [1, 2, 3]:
   a -= 2
   a += 6</a><a style=""""></a></div></div>","4","10","0","38","for i in [1, 2, 3]:
   a -= 2
   a += 6","10","2"
"","html-keyboard-response","179","772804","0.0-6.0-4.0-3.0-0.0","628","<div><div style=""""><a style=""white-space:pre-wrap;""> for i in [1, 2, 3]:
   a -= 2
   a += 6</a><a style=""""></a></div></div>","16","16","1","38","for i in [1, 2, 3]:
   a -= 2
   a += 6","16","3"
"","html-keyboard-response","180","775260","0.0-6.0-4.0-4.0-0.0","1945","<div><div style=""""><a style=""white-space:pre-wrap;""> for i in [1, 2, 3]:
   a -= 2
   a += 6</a><a style=""""></a></div></div>","14","14","1","38","for i in [1, 2, 3]:
   a -= 2
   a += 6","14","4"
"","html-keyboard-response","181","776636","0.0-6.0-4.0-5.0-0.0","866","<div><div style=""""><a style=""white-space:pre-wrap;""> for i in [1, 2, 3]:
   a -= 2
   a += 6</a><a style=""""></a></div></div>","20","20","1","38","for i in [1, 2, 3]:
   a -= 2
   a += 6","20","5"
"","html-keyboard-response","182","777484","0.0-6.0-4.0-6.0-0.0","343","<div><div style=""""><a style=""white-space:pre-wrap;""> for i in [1, 2, 3]:
   a -= 2
   a += 6</a><a style=""""></a></div></div>","backspace","backspace","1","38","for i in [1, 2, 3]:
   a -= 2
   a += 6","backspace","6"
"","html-keyboard-response","183","781388","0.0-6.0-5.0-0.0-0.0","3388","<div><div style=""""><a style=""white-space:pre-wrap;""> while a >= 8:
   a /= 2</a><a style=""""></a></div></div>","10","10","1","39","while a >= 8:
   a /= 2","10","0"
"","html-keyboard-response","184","782860","0.0-6.0-5.0-1.0-0.0","957","<div><div style=""""><a style=""white-space:pre-wrap;""> while a >= 8:
   a /= 2</a><a style=""""></a></div></div>","5","5","1","39","while a >= 8:
   a /= 2","5","1"
"","html-keyboard-response","185","783764","0.0-6.0-5.0-2.0-0.0","396","<div><div style=""""><a style=""white-space:pre-wrap;""> while a >= 8:
   a /= 2</a><a style=""""></a></div></div>","backspace","backspace","1","39","while a >= 8:
   a /= 2","backspace","2"
"","html-keyboard-response","186","789412","0.0-6.0-6.0-0.0-0.0","5138","<div><div style=""""><a style=""white-space:pre-wrap;""> while a <= 15:
   a = round_up(a*1.5)</a><a style=""""></a></div></div>","8","8","1","40","while a <= 15:
   a = round_up(a*1.5)","8","0"
"","html-keyboard-response","187","794795","0.0-6.0-6.0-1.0-0.0","4881","<div><div style=""""><a style=""white-space:pre-wrap;""> while a <= 15:
   a = round_up(a*1.5)</a><a style=""""></a></div></div>","12","12","1","40","while a <= 15:
   a = round_up(a*1.5)","12","1"
"","html-keyboard-response","188","799004","0.0-6.0-6.0-2.0-0.0","3705","<div><div style=""""><a style=""white-space:pre-wrap;""> while a <= 15:
   a = round_up(a*1.5)</a><a style=""""></a></div></div>","16","18","0","40","while a <= 15:
   a = round_up(a*1.5)","18","2"
"","html-keyboard-response","190","803268","0.0-6.0-6.0-3.0-0.0","247","<div><div style=""""><a style=""white-space:pre-wrap;""> while a <= 15:
   a = round_up(a*1.5)</a><a style=""""></a></div></div>","backspace","backspace","1","40","while a <= 15:
   a = round_up(a*1.5)","backspace","3"
"","html-keyboard-response","191","811045","0.0-6.0-7.0-0.0-0.0","7275","<div><div style=""""><a style=""white-space:pre-wrap;""> while a >= 4:
   a = average(a,2)</a><a style=""""></a></div></div>","10","10","1","41","while a >= 4:
   a = average(a,2)","10","0"
"","html-keyboard-response","192","813347","0.0-6.0-7.0-1.0-0.0","1789","<div><div style=""""><a style=""white-space:pre-wrap;""> while a >= 4:
   a = average(a,2)</a><a style=""""></a></div></div>","6","6","1","41","while a >= 4:
   a = average(a,2)","6","1"
"","html-keyboard-response","193","817292","0.0-6.0-7.0-2.0-0.0","3436","<div><div style=""""><a style=""white-space:pre-wrap;""> while a >= 4:
   a = average(a,2)</a><a style=""""></a></div></div>","4","4","1","41","while a >= 4:
   a = average(a,2)","4","2"
"","html-keyboard-response","194","824900","0.0-6.0-7.0-3.0-0.0","7100","<div><div style=""""><a style=""white-space:pre-wrap;""> while a >= 4:
   a = average(a,2)</a><a style=""""></a></div></div>","3","3","1","41","while a >= 4:
   a = average(a,2)","3","3"
"","html-keyboard-response","195","826244","0.0-6.0-7.0-4.0-0.0","835","<div><div style=""""><a style=""white-space:pre-wrap;""> while a >= 4:
   a = average(a,2)</a><a style=""""></a></div></div>","backspace","backspace","1","41","while a >= 4:
   a = average(a,2)","backspace","4"
"","html-keyboard-response","196","833020","0.0-6.0-8.0-0.0-0.0","6269","<div><div style=""""><a style=""white-space:pre-wrap;""> for i in [1, 2]:
   a += 7
   a /= 2</a><a style=""""></a></div></div>","9","10","0","42","for i in [1, 2]:
   a += 7
   a /= 2","10","0"
"","html-keyboard-response","198","839091","0.0-6.0-8.0-1.0-0.0","2061","<div><div style=""""><a style=""white-space:pre-wrap;""> for i in [1, 2]:
   a += 7
   a /= 2</a><a style=""""></a></div></div>","5","5","1","42","for i in [1, 2]:
   a += 7
   a /= 2","5","1"
"","html-keyboard-response","199","841956","0.0-6.0-8.0-2.0-0.0","2361","<div><div style=""""><a style=""white-space:pre-wrap;""> for i in [1, 2]:
   a += 7
   a /= 2</a><a style=""""></a></div></div>","12","12","1","42","for i in [1, 2]:
   a += 7
   a /= 2","12","2"
"","html-keyboard-response","200","844372","0.0-6.0-8.0-3.0-0.0","1908","<div><div style=""""><a style=""white-space:pre-wrap;""> for i in [1, 2]:
   a += 7
   a /= 2</a><a style=""""></a></div></div>","6","6","1","42","for i in [1, 2]:
   a += 7
   a /= 2","6","3"
"","html-keyboard-response","201","845955","0.0-6.0-8.0-4.0-0.0","1076","<div><div style=""""><a style=""white-space:pre-wrap;""> for i in [1, 2]:
   a += 7
   a /= 2</a><a style=""""></a></div></div>","backspace","backspace","1","42","for i in [1, 2]:
   a += 7
   a /= 2","backspace","4"
"","html-keyboard-response","202","853093","0.0-6.0-9.0-0.0-0.0","6634","<div><div style=""""><a style=""white-space:pre-wrap;""> for i in [1, 2, 3, 4]:
   a += 3</a><a style=""""></a></div></div>","8","9","0","43","for i in [1, 2, 3, 4]:
   a += 3","9","0"
"","html-keyboard-response","204","857844","0.0-6.0-9.0-1.0-0.0","723","<div><div style=""""><a style=""white-space:pre-wrap;""> for i in [1, 2, 3, 4]:
   a += 3</a><a style=""""></a></div></div>","12","12","1","43","for i in [1, 2, 3, 4]:
   a += 3","12","1"
"","html-keyboard-response","205","859236","0.0-6.0-9.0-2.0-0.0","878","<div><div style=""""><a style=""white-space:pre-wrap;""> for i in [1, 2, 3, 4]:
   a += 3</a><a style=""""></a></div></div>","15","15","1","43","for i in [1, 2, 3, 4]:
   a += 3","15","2"
"","html-keyboard-response","206","862172","0.0-6.0-9.0-3.0-0.0","2430","<div><div style=""""><a style=""white-space:pre-wrap;""> for i in [1, 2, 3, 4]:
   a += 3</a><a style=""""></a></div></div>","18","18","1","43","for i in [1, 2, 3, 4]:
   a += 3","18","3"
"","html-keyboard-response","207","863428","0.0-6.0-9.0-4.0-0.0","749","<div><div style=""""><a style=""white-space:pre-wrap;""> for i in [1, 2, 3, 4]:
   a += 3</a><a style=""""></a></div></div>","backspace","backspace","1","43","for i in [1, 2, 3, 4]:
   a += 3","backspace","4"
"","html-keyboard-response","208","867899","0.0-6.0-10.0-0.0-0.0","3963","<div><div style=""""><a style=""white-space:pre-wrap;""> for i in [1, 2]:
   a /= 3
   a *= 2</a><a style=""""></a></div></div>","6","6","1","44","for i in [1, 2]:
   a /= 3
   a *= 2","6","0"
"","html-keyboard-response","209","869092","0.0-6.0-10.0-1.0-0.0","691","<div><div style=""""><a style=""white-space:pre-wrap;""> for i in [1, 2]:
   a /= 3
   a *= 2</a><a style=""""></a></div></div>","12","12","1","44","for i in [1, 2]:
   a /= 3
   a *= 2","12","1"
"","html-keyboard-response","210","872939","0.0-6.0-10.0-2.0-0.0","3335","<div><div style=""""><a style=""white-space:pre-wrap;""> for i in [1, 2]:
   a /= 3
   a *= 2</a><a style=""""></a></div></div>","4","4","1","44","for i in [1, 2]:
   a /= 3
   a *= 2","4","2"
"","html-keyboard-response","211","874196","0.0-6.0-10.0-3.0-0.0","747","<div><div style=""""><a style=""white-space:pre-wrap;""> for i in [1, 2]:
   a /= 3
   a *= 2</a><a style=""""></a></div></div>","8","8","1","44","for i in [1, 2]:
   a /= 3
   a *= 2","8","3"
"","html-keyboard-response","212","875332","0.0-6.0-10.0-4.0-0.0","633","<div><div style=""""><a style=""white-space:pre-wrap;""> for i in [1, 2]:
   a /= 3
   a *= 2</a><a style=""""></a></div></div>","backspace","backspace","1","44","for i in [1, 2]:
   a /= 3
   a *= 2","backspace","4"
"","html-keyboard-response","213","879684","0.0-6.0-11.0-0.0-0.0","3844","<div><div style=""""><a style=""white-space:pre-wrap;""> while a >= 3:
   a *= 2
   a -= 9</a><a style=""""></a></div></div>","16","16","1","45","while a >= 3:
   a *= 2
   a -= 9","16","0"
"","html-keyboard-response","214","881867","0.0-6.0-11.0-1.0-0.0","1679","<div><div style=""""><a style=""white-space:pre-wrap;""> while a >= 3:
   a *= 2
   a -= 9</a><a style=""""></a></div></div>","7","7","1","45","while a >= 3:
   a *= 2
   a -= 9","7","1"
"","html-keyboard-response","215","888364","0.0-6.0-11.0-2.0-0.0","5989","<div><div style=""""><a style=""white-space:pre-wrap;""> while a >= 3:
   a *= 2
   a -= 9</a><a style=""""></a></div></div>","100","14","0","45","while a >= 3:
   a *= 2
   a -= 9","14","2"
"","html-keyboard-response","217","897347","0.0-6.0-11.0-3.0-0.0","4960","<div><div style=""""><a style=""white-space:pre-wrap;""> while a >= 3:
   a *= 2
   a -= 9</a><a style=""""></a></div></div>","3","5","0","45","while a >= 3:
   a *= 2
   a -= 9","5","3"
"","html-keyboard-response","219","902380","0.0-6.0-11.0-4.0-0.0","1006","<div><div style=""""><a style=""white-space:pre-wrap;""> while a >= 3:
   a *= 2
   a -= 9</a><a style=""""></a></div></div>","10","10","1","45","while a >= 3:
   a *= 2
   a -= 9","10","4"
"","html-keyboard-response","220","903643","0.0-6.0-11.0-5.0-0.0","758","<div><div style=""""><a style=""white-space:pre-wrap;""> while a >= 3:
   a *= 2
   a -= 9</a><a style=""""></a></div></div>","1","1","1","45","while a >= 3:
   a *= 2
   a -= 9","1","5"
"","html-keyboard-response","221","904691","0.0-6.0-11.0-6.0-0.0","537","<div><div style=""""><a style=""white-space:pre-wrap;""> while a >= 3:
   a *= 2
   a -= 9</a><a style=""""></a></div></div>","backspace","backspace","1","45","while a >= 3:
   a *= 2
   a -= 9","backspace","6"
"","html-keyboard-response","222","907498","0.0-7.0-1.0","2300","<p style=""font-size: 25px;"">Please press space to start the next program<br>>>>>>></p>"," ","","","","","",""
"","html-keyboard-response","223","909395","0.0-7.0-2.0","1896","<div><div style="" font-size:25px; color:green;""><a style=""white-space:pre-wrap;""> a = 18</a><a style=""""></a></div></div>","","null","","19","a = 18","",""
"","html-keyboard-response","224","913860","0.0-7.0-4.0-0.0-0.0","3948","<div><div style=""""><a style=""white-space:pre-wrap;""> while a >= 10:
   a /= 3
   a *= 2</a><a style=""""></a></div></div>","6","6","1","20","while a >= 10:
   a /= 3
   a *= 2","6","0"
"","html-keyboard-response","225","915107","0.0-7.0-4.0-1.0-0.0","738","<div><div style=""""><a style=""white-space:pre-wrap;""> while a >= 10:
   a /= 3
   a *= 2</a><a style=""""></a></div></div>","12","12","1","20","while a >= 10:
   a /= 3
   a *= 2","12","1"
"","html-keyboard-response","226","917763","0.0-7.0-4.0-2.0-0.0","2147","<div><div style=""""><a style=""white-space:pre-wrap;""> while a >= 10:
   a /= 3
   a *= 2</a><a style=""""></a></div></div>","4","4","1","20","while a >= 10:
   a /= 3
   a *= 2","4","2"
"","html-keyboard-response","227","919411","0.0-7.0-4.0-3.0-0.0","1146","<div><div style=""""><a style=""white-space:pre-wrap;""> while a >= 10:
   a /= 3
   a *= 2</a><a style=""""></a></div></div>","8","8","1","20","while a >= 10:
   a /= 3
   a *= 2","8","3"
"","html-keyboard-response","228","921123","0.0-7.0-4.0-4.0-0.0","1207","<div><div style=""""><a style=""white-space:pre-wrap;""> while a >= 10:
   a /= 3
   a *= 2</a><a style=""""></a></div></div>","backspace","backspace","1","20","while a >= 10:
   a /= 3
   a *= 2","backspace","4"
"","html-keyboard-response","229","926228","0.0-7.0-5.0-0.0-0.0","4594","<div><div style=""""><a style=""white-space:pre-wrap;""> while a >= 2:
   a /= 2</a><a style=""""></a></div></div>","4","4","1","21","while a >= 2:
   a /= 2","4","0"
"","html-keyboard-response","230","927522","0.0-7.0-5.0-1.0-0.0","790","<div><div style=""""><a style=""white-space:pre-wrap;""> while a >= 2:
   a /= 2</a><a style=""""></a></div></div>","2","2","1","21","while a >= 2:
   a /= 2","2","1"
"","html-keyboard-response","231","928746","0.0-7.0-5.0-2.0-0.0","718","<div><div style=""""><a style=""white-space:pre-wrap;""> while a >= 2:
   a /= 2</a><a style=""""></a></div></div>","1","1","1","21","while a >= 2:
   a /= 2","1","2"
"","html-keyboard-response","232","929787","0.0-7.0-5.0-3.0-0.0","527","<div><div style=""""><a style=""white-space:pre-wrap;""> while a >= 2:
   a /= 2</a><a style=""""></a></div></div>","backspace","backspace","1","21","while a >= 2:
   a /= 2","backspace","3"
"","html-keyboard-response","233","932363","0.0-7.0-6.0-0.0-0.0","2072","<div><div style=""""><a style=""white-space:pre-wrap;""> for i in [1, 2, 3, 4]:
   a += 2</a><a style=""""></a></div></div>","3","3","1","22","for i in [1, 2, 3, 4]:
   a += 2","3","0"
"","html-keyboard-response","234","933211","0.0-7.0-6.0-1.0-0.0","332","<div><div style=""""><a style=""white-space:pre-wrap;""> for i in [1, 2, 3, 4]:
   a += 2</a><a style=""""></a></div></div>","5","5","1","22","for i in [1, 2, 3, 4]:
   a += 2","5","1"
"","html-keyboard-response","235","934019","0.0-7.0-6.0-2.0-0.0","296","<div><div style=""""><a style=""white-space:pre-wrap;""> for i in [1, 2, 3, 4]:
   a += 2</a><a style=""""></a></div></div>","7","7","1","22","for i in [1, 2, 3, 4]:
   a += 2","7","2"
"","html-keyboard-response","236","935339","0.0-7.0-6.0-3.0-0.0","816","<div><div style=""""><a style=""white-space:pre-wrap;""> for i in [1, 2, 3, 4]:
   a += 2</a><a style=""""></a></div></div>","9","9","1","22","for i in [1, 2, 3, 4]:
   a += 2","9","3"
"","html-keyboard-response","237","936219","0.0-7.0-6.0-4.0-0.0","369","<div><div style=""""><a style=""white-space:pre-wrap;""> for i in [1, 2, 3, 4]:
   a += 2</a><a style=""""></a></div></div>","backspace","backspace","1","22","for i in [1, 2, 3, 4]:
   a += 2","backspace","4"
"","html-keyboard-response","238","942683","0.0-7.0-7.0-0.0-0.0","5962","<div><div style=""""><a style=""white-space:pre-wrap;""> while a >= 6:
   a += 9
   a /= 3</a><a style=""""></a></div></div>","18","18","1","23","while a >= 6:
   a += 9
   a /= 3","18","0"
"","html-keyboard-response","239","944795","0.0-7.0-7.0-1.0-0.0","1596","<div><div style=""""><a style=""white-space:pre-wrap;""> while a >= 6:
   a += 9
   a /= 3</a><a style=""""></a></div></div>","6","6","1","23","while a >= 6:
   a += 9
   a /= 3","6","1"
"","html-keyboard-response","240","958164","0.0-7.0-7.0-2.0-0.0","12860","<div><div style=""""><a style=""white-space:pre-wrap;""> while a >= 6:
   a += 9
   a /= 3</a><a style=""""></a></div></div>","15","15","1","23","while a >= 6:
   a += 9
   a /= 3","15","2"
"","html-keyboard-response","241","961291","0.0-7.0-7.0-3.0-0.0","2620","<div><div style=""""><a style=""white-space:pre-wrap;""> while a >= 6:
   a += 9
   a /= 3</a><a style=""""></a></div></div>","5","5","1","23","while a >= 6:
   a += 9
   a /= 3","5","3"
"","html-keyboard-response","242","962123","0.0-7.0-7.0-4.0-0.0","316","<div><div style=""""><a style=""white-space:pre-wrap;""> while a >= 6:
   a += 9
   a /= 3</a><a style=""""></a></div></div>","backspace","backspace","1","23","while a >= 6:
   a += 9
   a /= 3","backspace","4"
"","html-keyboard-response","243","968266","0.0-7.0-8.0-0.0-0.0","5631","<div><div style=""""><a style=""white-space:pre-wrap;""> for i in [1, 2, 3]:
   a = round_down(a*1.5)</a><a style=""""></a></div></div>","8","7","0","24","for i in [1, 2, 3]:
   a = round_down(a*1.5)","7","0"
"","html-keyboard-response","245","980211","0.0-7.0-8.0-1.0-0.0","7920","<div><div style=""""><a style=""white-space:pre-wrap;""> for i in [1, 2, 3]:
   a = round_down(a*1.5)</a><a style=""""></a></div></div>","11","10","0","24","for i in [1, 2, 3]:
   a = round_down(a*1.5)","10","1"
"","html-keyboard-response","247","995763","0.0-7.0-8.0-2.0-0.0","11539","<div><div style=""""><a style=""white-space:pre-wrap;""> for i in [1, 2, 3]:
   a = round_down(a*1.5)</a><a style=""""></a></div></div>","19","15","0","24","for i in [1, 2, 3]:
   a = round_down(a*1.5)","15","2"
"","html-keyboard-response","249","1000858","0.0-7.0-8.0-3.0-0.0","1079","<div><div style=""""><a style=""white-space:pre-wrap;""> for i in [1, 2, 3]:
   a = round_down(a*1.5)</a><a style=""""></a></div></div>","backspace","backspace","1","24","for i in [1, 2, 3]:
   a = round_down(a*1.5)","backspace","3"
"","html-keyboard-response","250","1007091","0.0-7.0-9.0-0.0-0.0","5719","<div><div style=""""><a style=""white-space:pre-wrap;""> for i in [1, 2]:
   a = average(a,3)</a><a style=""""></a></div></div>","9","9","1","25","for i in [1, 2]:
   a = average(a,3)","9","0"
"","html-keyboard-response","251","1010628","0.0-7.0-9.0-1.0-0.0","3029","<div><div style=""""><a style=""white-space:pre-wrap;""> for i in [1, 2]:
   a = average(a,3)</a><a style=""""></a></div></div>","6","6","1","25","for i in [1, 2]:
   a = average(a,3)","6","1"
"","html-keyboard-response","252","1012115","0.0-7.0-9.0-2.0-0.0","975","<div><div style=""""><a style=""white-space:pre-wrap;""> for i in [1, 2]:
   a = average(a,3)</a><a style=""""></a></div></div>","backspace","backspace","1","25","for i in [1, 2]:
   a = average(a,3)","backspace","2"
"","html-keyboard-response","253","1017219","0.0-7.0-10.0-0.0-0.0","4597","<div><div style=""""><a style=""white-space:pre-wrap;""> while a <= 11:
   a *= 2
   a -= 5</a><a style=""""></a></div></div>","12","12","1","26","while a <= 11:
   a *= 2
   a -= 5","12","0"
"","html-keyboard-response","254","1019891","0.0-7.0-10.0-1.0-0.0","2169","<div><div style=""""><a style=""white-space:pre-wrap;""> while a <= 11:
   a *= 2
   a -= 5</a><a style=""""></a></div></div>","7","7","1","26","while a <= 11:
   a *= 2
   a -= 5","7","1"
"","html-keyboard-response","255","1022243","0.0-7.0-10.0-2.0-0.0","1843","<div><div style=""""><a style=""white-space:pre-wrap;""> while a <= 11:
   a *= 2
   a -= 5</a><a style=""""></a></div></div>","14","14","1","26","while a <= 11:
   a *= 2
   a -= 5","14","2"
"","html-keyboard-response","256","1023675","0.0-7.0-10.0-3.0-0.0","919","<div><div style=""""><a style=""white-space:pre-wrap;""> while a <= 11:
   a *= 2
   a -= 5</a><a style=""""></a></div></div>","9","9","1","26","while a <= 11:
   a *= 2
   a -= 5","9","3"
"","html-keyboard-response","257","1027284","0.0-7.0-10.0-4.0-0.0","3107","<div><div style=""""><a style=""white-space:pre-wrap;""> while a <= 11:
   a *= 2
   a -= 5</a><a style=""""></a></div></div>","18","18","1","26","while a <= 11:
   a *= 2
   a -= 5","18","4"
"","html-keyboard-response","258","1030715","0.0-7.0-10.0-5.0-0.0","2919","<div><div style=""""><a style=""white-space:pre-wrap;""> while a <= 11:
   a *= 2
   a -= 5</a><a style=""""></a></div></div>","13","13","1","26","while a <= 11:
   a *= 2
   a -= 5","13","5"
"","html-keyboard-response","259","1031395","0.0-7.0-10.0-6.0-0.0","169","<div><div style=""""><a style=""white-space:pre-wrap;""> while a <= 11:
   a *= 2
   a -= 5</a><a style=""""></a></div></div>","backspace","backspace","1","26","while a <= 11:
   a *= 2
   a -= 5","backspace","6"
"","html-keyboard-response","260","1037315","0.0-7.0-11.0-0.0-0.0","5405","<div><div style=""""><a style=""white-space:pre-wrap;""> while a >= 6:
   a += 4
   a -= 7</a><a style=""""></a></div></div>","17","17","1","27","while a >= 6:
   a += 4
   a -= 7","17","0"
"","html-keyboard-response","261","1037826","0.0-7.0-11.0-1.0-0.0","6","<div><div style=""""><a style=""white-space:pre-wrap;""> while a >= 6:
   a += 4
   a -= 7</a><a style=""""></a></div></div>","10","10","1","27","while a >= 6:
   a += 4
   a -= 7","10","1"
"","html-keyboard-response","262","1039755","0.0-7.0-11.0-2.0-0.0","1419","<div><div style=""""><a style=""white-space:pre-wrap;""> while a >= 6:
   a += 4
   a -= 7</a><a style=""""></a></div></div>","14","14","1","27","while a >= 6:
   a += 4
   a -= 7","14","2"
"","html-keyboard-response","263","1043411","0.0-7.0-11.0-3.0-0.0","3140","<div><div style=""""><a style=""white-space:pre-wrap;""> while a >= 6:
   a += 4
   a -= 7</a><a style=""""></a></div></div>","7","7","1","27","while a >= 6:
   a += 4
   a -= 7","7","3"
"","html-keyboard-response","264","1046331","0.0-7.0-11.0-4.0-0.0","2405","<div><div style=""""><a style=""white-space:pre-wrap;""> while a >= 6:
   a += 4
   a -= 7</a><a style=""""></a></div></div>","11","11","1","27","while a >= 6:
   a += 4
   a -= 7","11","4"
"","html-keyboard-response","265","1049210","0.0-7.0-11.0-5.0-0.0","2365","<div><div style=""""><a style=""white-space:pre-wrap;""> while a >= 6:
   a += 4
   a -= 7</a><a style=""""></a></div></div>","3","4","0","27","while a >= 6:
   a += 4
   a -= 7","4","5"
"","html-keyboard-response","267","1053939","0.0-7.0-11.0-6.0-0.0","707","<div><div style=""""><a style=""white-space:pre-wrap;""> while a >= 6:
   a += 4
   a -= 7</a><a style=""""></a></div></div>","backspace","backspace","1","27","while a >= 6:
   a += 4
   a -= 7","backspace","6"
"","html-keyboard-response","268","1108347","0.0-8.0-0.0-0.0","53900","<p style=""position:absolute; top:30%; font-size:25px; color:green;"" >Take a short break now</p>"," ","","","","","",""
"","html-keyboard-response","269","1109587","0.0-8.0-1.0","1238","<p style=""font-size: 25px;"">Please press space to start the next program<br>>>>>>></p>"," ","","","","","",""
"","html-keyboard-response","270","1110890","0.0-8.0-2.0","1303","<div><div style="" font-size:25px; color:green;""><a style=""white-space:pre-wrap;""> a = 9</a><a style=""""></a></div></div>","","null","","91","a = 9","",""
"","html-keyboard-response","271","1116034","0.0-8.0-4.0-0.0-0.0","4639","<div><div style=""""><a style=""white-space:pre-wrap;""> while a >= 2:
   a /= 3</a><a style=""""></a></div></div>","3","3","1","92","while a >= 2:
   a /= 3","3","0"
"","html-keyboard-response","272","1118283","0.0-8.0-4.0-1.0-0.0","1740","<div><div style=""""><a style=""white-space:pre-wrap;""> while a >= 2:
   a /= 3</a><a style=""""></a></div></div>","1","1","1","92","while a >= 2:
   a /= 3","1","1"
"","html-keyboard-response","273","1118971","0.0-8.0-4.0-2.0-0.0","172","<div><div style=""""><a style=""white-space:pre-wrap;""> while a >= 2:
   a /= 3</a><a style=""""></a></div></div>","backspace","backspace","1","92","while a >= 2:
   a /= 3","backspace","2"
"","html-keyboard-response","274","1121475","0.0-8.0-5.0-0.0-0.0","2001","<div><div style=""""><a style=""white-space:pre-wrap;""> for i in [1, 2, 3]:
   a += 6</a><a style=""""></a></div></div>","7","7","1","93","for i in [1, 2, 3]:
   a += 6","7","0"
"","html-keyboard-response","275","1125242","0.0-8.0-5.0-1.0-0.0","3254","<div><div style=""""><a style=""white-space:pre-wrap;""> for i in [1, 2, 3]:
   a += 6</a><a style=""""></a></div></div>","15","13","0","93","for i in [1, 2, 3]:
   a += 6","13","1"
"","html-keyboard-response","277","1130707","0.0-8.0-5.0-2.0-0.0","1451","<div><div style=""""><a style=""white-space:pre-wrap;""> for i in [1, 2, 3]:
   a += 6</a><a style=""""></a></div></div>","18","19","0","93","for i in [1, 2, 3]:
   a += 6","19","2"
"","html-keyboard-response","279","1135466","0.0-8.0-5.0-3.0-0.0","733","<div><div style=""""><a style=""white-space:pre-wrap;""> for i in [1, 2, 3]:
   a += 6</a><a style=""""></a></div></div>","backspace","backspace","1","93","for i in [1, 2, 3]:
   a += 6","backspace","3"
"","html-keyboard-response","280","1140363","0.0-8.0-6.0-0.0-0.0","4381","<div><div style=""""><a style=""white-space:pre-wrap;""> for i in [1, 2]:
   a += 1
   a -= 8</a><a style=""""></a></div></div>","20","20","1","94","for i in [1, 2]:
   a += 1
   a -= 8","20","0"
"","html-keyboard-response","281","1142187","0.0-8.0-6.0-1.0-0.0","1307","<div><div style=""""><a style=""white-space:pre-wrap;""> for i in [1, 2]:
   a += 1
   a -= 8</a><a style=""""></a></div></div>","12","12","1","94","for i in [1, 2]:
   a += 1
   a -= 8","12","1"
"","html-keyboard-response","282","1146683","0.0-8.0-6.0-2.0-0.0","3992","<div><div style=""""><a style=""white-space:pre-wrap;""> for i in [1, 2]:
   a += 1
   a -= 8</a><a style=""""></a></div></div>","13","13","1","94","for i in [1, 2]:
   a += 1
   a -= 8","13","2"
"","html-keyboard-response","283","1147986","0.0-8.0-6.0-3.0-0.0","786","<div><div style=""""><a style=""white-space:pre-wrap;""> for i in [1, 2]:
   a += 1
   a -= 8</a><a style=""""></a></div></div>","5","5","1","94","for i in [1, 2]:
   a += 1
   a -= 8","5","3"
"","html-keyboard-response","284","1149300","0.0-8.0-6.0-4.0-0.0","798","<div><div style=""""><a style=""white-space:pre-wrap;""> for i in [1, 2]:
   a += 1
   a -= 8</a><a style=""""></a></div></div>","backspace","backspace","1","94","for i in [1, 2]:
   a += 1
   a -= 8","backspace","4"
"","html-keyboard-response","285","1153427","0.0-8.0-7.0-0.0-0.0","3615","<div><div style=""""><a style=""white-space:pre-wrap;""> while a <= 6:
   a *= 3
   a -= 9</a><a style=""""></a></div></div>","15","15","1","95","while a <= 6:
   a *= 3
   a -= 9","15","0"
"","html-keyboard-response","286","1158747","0.0-8.0-7.0-1.0-0.0","4816","<div><div style=""""><a style=""white-space:pre-wrap;""> while a <= 6:
   a *= 3
   a -= 9</a><a style=""""></a></div></div>","6","6","1","95","while a <= 6:
   a *= 3
   a -= 9","6","1"
"","html-keyboard-response","287","1160442","0.0-8.0-7.0-2.0-0.0","1193","<div><div style=""""><a style=""white-space:pre-wrap;""> while a <= 6:
   a *= 3
   a -= 9</a><a style=""""></a></div></div>","18","18","1","95","while a <= 6:
   a *= 3
   a -= 9","18","2"
"","html-keyboard-response","288","1166475","0.0-8.0-7.0-3.0-0.0","5524","<div><div style=""""><a style=""white-space:pre-wrap;""> while a <= 6:
   a *= 3
   a -= 9</a><a style=""""></a></div></div>","9","9","1","95","while a <= 6:
   a *= 3
   a -= 9","9","3"
"","html-keyboard-response","289","1167955","0.0-8.0-7.0-4.0-0.0","973","<div><div style=""""><a style=""white-space:pre-wrap;""> while a <= 6:
   a *= 3
   a -= 9</a><a style=""""></a></div></div>","backspace","backspace","1","95","while a <= 6:
   a *= 3
   a -= 9","backspace","4"
"","html-keyboard-response","290","1172642","0.0-8.0-8.0-0.0-0.0","4175","<div><div style=""""><a style=""white-space:pre-wrap;""> while a >= 3:
   a = average(a, 1)</a><a style=""""></a></div></div>","5","5","1","96","while a >= 3:
   a = average(a, 1)","5","0"
"","html-keyboard-response","291","1177004","0.0-8.0-8.0-1.0-0.0","3851","<div><div style=""""><a style=""white-space:pre-wrap;""> while a >= 3:
   a = average(a, 1)</a><a style=""""></a></div></div>","3","3","1","96","while a >= 3:
   a = average(a, 1)","3","1"
"","html-keyboard-response","292","1178914","0.0-8.0-8.0-2.0-0.0","1396","<div><div style=""""><a style=""white-space:pre-wrap;""> while a >= 3:
   a = average(a, 1)</a><a style=""""></a></div></div>","2","2","1","96","while a >= 3:
   a = average(a, 1)","2","2"
"","html-keyboard-response","293","1180594","0.0-8.0-8.0-3.0-0.0","1171","<div><div style=""""><a style=""white-space:pre-wrap;""> while a >= 3:
   a = average(a, 1)</a><a style=""""></a></div></div>","backspace","backspace","1","96","while a >= 3:
   a = average(a, 1)","backspace","3"
"","html-keyboard-response","294","1185714","0.0-8.0-9.0-0.0-0.0","4608","<div><div style=""""><a style=""white-space:pre-wrap;""> while a <= 9:
   a -= 1
   a *= 5</a><a style=""""></a></div></div>","1","1","1","97","while a <= 9:
   a -= 1
   a *= 5","1","0"
"","html-keyboard-response","295","1186546","0.0-8.0-9.0-1.0-0.0","327","<div><div style=""""><a style=""white-space:pre-wrap;""> while a <= 9:
   a -= 1
   a *= 5</a><a style=""""></a></div></div>","5","5","1","97","while a <= 9:
   a -= 1
   a *= 5","5","1"
"","html-keyboard-response","296","1188450","0.0-8.0-9.0-2.0-0.0","1393","<div><div style=""""><a style=""white-space:pre-wrap;""> while a <= 9:
   a -= 1
   a *= 5</a><a style=""""></a></div></div>","4","4","1","97","while a <= 9:
   a -= 1
   a *= 5","4","2"
"","html-keyboard-response","297","1190306","0.0-8.0-9.0-3.0-0.0","1345","<div><div style=""""><a style=""white-space:pre-wrap;""> while a <= 9:
   a -= 1
   a *= 5</a><a style=""""></a></div></div>","20","20","1","97","while a <= 9:
   a -= 1
   a *= 5","20","3"
"","html-keyboard-response","298","1191521","0.0-8.0-9.0-4.0-0.0","703","<div><div style=""""><a style=""white-space:pre-wrap;""> while a <= 9:
   a -= 1
   a *= 5</a><a style=""""></a></div></div>","backspace","backspace","1","97","while a <= 9:
   a -= 1
   a *= 5","backspace","4"
"","html-keyboard-response","299","1194785","0.0-8.0-10.0-0.0-0.0","2760","<div><div style=""""><a style=""white-space:pre-wrap;""> for i in [1, 2, 3]:
   a -= 3</a><a style=""""></a></div></div>","17","17","1","98","for i in [1, 2, 3]:
   a -= 3","17","0"
"","html-keyboard-response","300","1196610","0.0-8.0-10.0-1.0-0.0","1322","<div><div style=""""><a style=""white-space:pre-wrap;""> for i in [1, 2, 3]:
   a -= 3</a><a style=""""></a></div></div>","14","14","1","98","for i in [1, 2, 3]:
   a -= 3","14","1"
"","html-keyboard-response","301","1198642","0.0-8.0-10.0-2.0-0.0","1527","<div><div style=""""><a style=""white-space:pre-wrap;""> for i in [1, 2, 3]:
   a -= 3</a><a style=""""></a></div></div>","11","11","1","98","for i in [1, 2, 3]:
   a -= 3","11","2"
"","html-keyboard-response","302","1199554","0.0-8.0-10.0-3.0-0.0","405","<div><div style=""""><a style=""white-space:pre-wrap;""> for i in [1, 2, 3]:
   a -= 3</a><a style=""""></a></div></div>","backspace","backspace","1","98","for i in [1, 2, 3]:
   a -= 3","backspace","3"
"","html-keyboard-response","303","1207938","0.0-8.0-11.0-0.0-0.0","7880","<div><div style=""""><a style=""white-space:pre-wrap;""> for i in [1, 2]:
   a -= 5</a><a style=""""></a></div></div>","6","6","1","99","for i in [1, 2]:
   a -= 5","6","0"
"","html-keyboard-response","304","1210307","0.0-8.0-11.0-1.0-0.0","1865","<div><div style=""""><a style=""white-space:pre-wrap;""> for i in [1, 2]:
   a -= 5</a><a style=""""></a></div></div>","1","1","1","99","for i in [1, 2]:
   a -= 5","1","1"
"","html-keyboard-response","305","1211178","0.0-8.0-11.0-2.0-0.0","363","<div><div style=""""><a style=""white-space:pre-wrap;""> for i in [1, 2]:
   a -= 5</a><a style=""""></a></div></div>","backspace","backspace","1","99","for i in [1, 2]:
   a -= 5","backspace","2"
"","html-keyboard-response","306","1213178","0.0-9.0-1.0","1490","<p style=""font-size: 25px;"">Please press space to start the next program<br>>>>>>></p>"," ","","","","","",""
"","html-keyboard-response","307","1214730","0.0-9.0-2.0","1551","<div><div style="" font-size:25px; color:green;""><a style=""white-space:pre-wrap;""> a = 11</a><a style=""""></a></div></div>","","null","","64","a = 11","",""
"","html-keyboard-response","308","1218602","0.0-9.0-4.0-0.0-0.0","3369","<div><div style=""""><a style=""white-space:pre-wrap;""> for i in [1, 2]:
   a += 4
   a /= 3</a><a style=""""></a></div></div>","15","15","1","65","for i in [1, 2]:
   a += 4
   a /= 3","15","0"
"","html-keyboard-response","309","1220306","0.0-9.0-4.0-1.0-0.0","1199","<div><div style=""""><a style=""white-space:pre-wrap;""> for i in [1, 2]:
   a += 4
   a /= 3</a><a style=""""></a></div></div>","5","5","1","65","for i in [1, 2]:
   a += 4
   a /= 3","5","1"
"","html-keyboard-response","310","1223970","0.0-9.0-4.0-2.0-0.0","3162","<div><div style=""""><a style=""white-space:pre-wrap;""> for i in [1, 2]:
   a += 4
   a /= 3</a><a style=""""></a></div></div>","9","9","1","65","for i in [1, 2]:
   a += 4
   a /= 3","9","2"
"","html-keyboard-response","311","1226626","0.0-9.0-4.0-3.0-0.0","2151","<div><div style=""""><a style=""white-space:pre-wrap;""> for i in [1, 2]:
   a += 4
   a /= 3</a><a style=""""></a></div></div>","3","3","1","65","for i in [1, 2]:
   a += 4
   a /= 3","3","3"
"","html-keyboard-response","312","1228129","0.0-9.0-4.0-4.0-0.0","997","<div><div style=""""><a style=""white-space:pre-wrap;""> for i in [1, 2]:
   a += 4
   a /= 3</a><a style=""""></a></div></div>","backspace","backspace","1","65","for i in [1, 2]:
   a += 4
   a /= 3","backspace","4"
"","html-keyboard-response","313","1236474","0.0-9.0-5.0-0.0-0.0","7831","<div><div style=""""><a style=""white-space:pre-wrap;""> for i in [1, 2]:
   a = round_down(a*2.5)</a><a style=""""></a></div></div>","8","7","0","66","for i in [1, 2]:
   a = round_down(a*2.5)","7","0"
"","html-keyboard-response","315","1249426","0.0-9.0-5.0-1.0-0.0","8923","<div><div style=""""><a style=""white-space:pre-wrap;""> for i in [1, 2]:
   a = round_down(a*2.5)</a><a style=""""></a></div></div>","18","17","0","66","for i in [1, 2]:
   a = round_down(a*2.5)","17","1"
"","html-keyboard-response","317","1254426","0.0-9.0-5.0-2.0-0.0","985","<div><div style=""""><a style=""white-space:pre-wrap;""> for i in [1, 2]:
   a = round_down(a*2.5)</a><a style=""""></a></div></div>","backspace","backspace","1","66","for i in [1, 2]:
   a = round_down(a*2.5)","backspace","2"
"","html-keyboard-response","318","1261346","0.0-9.0-6.0-0.0-0.0","6409","<div><div style=""""><a style=""white-space:pre-wrap;""> while a >= 3:
   a = average(a,1)</a><a style=""""></a></div></div>","9","9","1","67","while a >= 3:
   a = average(a,1)","9","0"
"","html-keyboard-response","319","1264066","0.0-9.0-6.0-1.0-0.0","2214","<div><div style=""""><a style=""white-space:pre-wrap;""> while a >= 3:
   a = average(a,1)</a><a style=""""></a></div></div>","5","5","1","67","while a >= 3:
   a = average(a,1)","5","1"
"","html-keyboard-response","320","1266329","0.0-9.0-6.0-2.0-0.0","1760","<div><div style=""""><a style=""white-space:pre-wrap;""> while a >= 3:
   a = average(a,1)</a><a style=""""></a></div></div>","3","3","1","67","while a >= 3:
   a = average(a,1)","3","2"
"","html-keyboard-response","321","1268201","0.0-9.0-6.0-3.0-0.0","1368","<div><div style=""""><a style=""white-space:pre-wrap;""> while a >= 3:
   a = average(a,1)</a><a style=""""></a></div></div>","2","2","1","67","while a >= 3:
   a = average(a,1)","2","3"
"","html-keyboard-response","322","1269410","0.0-9.0-6.0-4.0-0.0","703","<div><div style=""""><a style=""white-space:pre-wrap;""> while a >= 3:
   a = average(a,1)</a><a style=""""></a></div></div>","backspace","backspace","1","67","while a >= 3:
   a = average(a,1)","backspace","4"
"","html-keyboard-response","323","1271969","0.0-9.0-7.0-0.0-0.0","2042","<div><div style=""""><a style=""white-space:pre-wrap;""> for i in [1, 2]:
   a *= 3
   a -= 1</a><a style=""""></a></div></div>","9","6","0","68","for i in [1, 2]:
   a *= 3
   a -= 1","6","0"
"","html-keyboard-response","325","1276306","0.0-9.0-7.0-1.0-0.0","322","<div><div style=""""><a style=""white-space:pre-wrap;""> for i in [1, 2]:
   a *= 3
   a -= 1</a><a style=""""></a></div></div>","5","5","1","68","for i in [1, 2]:
   a *= 3
   a -= 1","5","1"
"","html-keyboard-response","326","1278386","0.0-9.0-7.0-2.0-0.0","1577","<div><div style=""""><a style=""white-space:pre-wrap;""> for i in [1, 2]:
   a *= 3
   a -= 1</a><a style=""""></a></div></div>","15","15","1","68","for i in [1, 2]:
   a *= 3
   a -= 1","15","2"
"","html-keyboard-response","327","1282448","0.0-9.0-7.0-3.0-0.0","3554","<div><div style=""""><a style=""white-space:pre-wrap;""> for i in [1, 2]:
   a *= 3
   a -= 1</a><a style=""""></a></div></div>","14","14","1","68","for i in [1, 2]:
   a *= 3
   a -= 1","14","3"
"","html-keyboard-response","328","1283153","0.0-9.0-7.0-4.0-0.0","199","<div><div style=""""><a style=""white-space:pre-wrap;""> for i in [1, 2]:
   a *= 3
   a -= 1</a><a style=""""></a></div></div>","backspace","backspace","1","68","for i in [1, 2]:
   a *= 3
   a -= 1","backspace","4"
"","html-keyboard-response","329","1287322","0.0-9.0-8.0-0.0-0.0","3651","<div><div style=""""><a style=""white-space:pre-wrap;""> for i in [1, 2, 3]:
   a -= 5
   a += 1</a><a style=""""></a></div></div>","9","9","1","69","for i in [1, 2, 3]:
   a -= 5
   a += 1","9","0"
"","html-keyboard-response","330","1289672","0.0-9.0-8.0-1.0-0.0","1846","<div><div style=""""><a style=""white-space:pre-wrap;""> for i in [1, 2, 3]:
   a -= 5
   a += 1</a><a style=""""></a></div></div>","10","10","1","69","for i in [1, 2, 3]:
   a -= 5
   a += 1","10","1"
"","html-keyboard-response","331","1292489","0.0-9.0-8.0-2.0-0.0","2308","<div><div style=""""><a style=""white-space:pre-wrap;""> for i in [1, 2, 3]:
   a -= 5
   a += 1</a><a style=""""></a></div></div>","5","5","1","69","for i in [1, 2, 3]:
   a -= 5
   a += 1","5","2"
"","html-keyboard-response","332","1293306","0.0-9.0-8.0-3.0-0.0","302","<div><div style=""""><a style=""white-space:pre-wrap;""> for i in [1, 2, 3]:
   a -= 5
   a += 1</a><a style=""""></a></div></div>","6","6","1","69","for i in [1, 2, 3]:
   a -= 5
   a += 1","6","3"
"","html-keyboard-response","333","1295042","0.0-9.0-8.0-4.0-0.0","1229","<div><div style=""""><a style=""white-space:pre-wrap;""> for i in [1, 2, 3]:
   a -= 5
   a += 1</a><a style=""""></a></div></div>","1","1","1","69","for i in [1, 2, 3]:
   a -= 5
   a += 1","1","4"
"","html-keyboard-response","334","1295633","0.0-9.0-8.0-5.0-0.0","75","<div><div style=""""><a style=""white-space:pre-wrap;""> for i in [1, 2, 3]:
   a -= 5
   a += 1</a><a style=""""></a></div></div>","2","2","1","69","for i in [1, 2, 3]:
   a -= 5
   a += 1","2","5"
"","html-keyboard-response","335","1296481","0.0-9.0-8.0-6.0-0.0","330","<div><div style=""""><a style=""white-space:pre-wrap;""> for i in [1, 2, 3]:
   a -= 5
   a += 1</a><a style=""""></a></div></div>","backspace","backspace","1","69","for i in [1, 2, 3]:
   a -= 5
   a += 1","backspace","6"
"","html-keyboard-response","336","1300377","0.0-9.0-9.0-0.0-0.0","3385","<div><div style=""""><a style=""white-space:pre-wrap;""> while a <= 15:
   a *= 3</a><a style=""""></a></div></div>","6","6","1","70","while a <= 15:
   a *= 3","6","0"
"","html-keyboard-response","337","1302041","0.0-9.0-9.0-1.0-0.0","1151","<div><div style=""""><a style=""white-space:pre-wrap;""> while a <= 15:
   a *= 3</a><a style=""""></a></div></div>","18","18","1","70","while a <= 15:
   a *= 3","18","1"
"","html-keyboard-response","338","1302825","0.0-9.0-9.0-2.0-0.0","283","<div><div style=""""><a style=""white-space:pre-wrap;""> while a <= 15:
   a *= 3</a><a style=""""></a></div></div>","backspace","backspace","1","70","while a <= 15:
   a *= 3","backspace","2"
"","html-keyboard-response","339","1306721","0.0-9.0-10.0-0.0-0.0","3379","<div><div style=""""><a style=""white-space:pre-wrap;""> for i in [1, 2]:
   a /= 3
   a *= 2</a><a style=""""></a></div></div>","6","6","1","71","for i in [1, 2]:
   a /= 3
   a *= 2","6","0"
"","html-keyboard-response","340","1308073","0.0-9.0-10.0-1.0-0.0","842","<div><div style=""""><a style=""white-space:pre-wrap;""> for i in [1, 2]:
   a /= 3
   a *= 2</a><a style=""""></a></div></div>","12","12","1","71","for i in [1, 2]:
   a /= 3
   a *= 2","12","1"
"","html-keyboard-response","341","1312017","0.0-9.0-10.0-2.0-0.0","3430","<div><div style=""""><a style=""white-space:pre-wrap;""> for i in [1, 2]:
   a /= 3
   a *= 2</a><a style=""""></a></div></div>","4","4","1","71","for i in [1, 2]:
   a /= 3
   a *= 2","4","2"
"","html-keyboard-response","342","1314058","0.0-9.0-10.0-3.0-0.0","1537","<div><div style=""""><a style=""white-space:pre-wrap;""> for i in [1, 2]:
   a /= 3
   a *= 2</a><a style=""""></a></div></div>","8","8","1","71","for i in [1, 2]:
   a /= 3
   a *= 2","8","3"
"","html-keyboard-response","343","1315368","0.0-9.0-10.0-4.0-0.0","797","<div><div style=""""><a style=""white-space:pre-wrap;""> for i in [1, 2]:
   a /= 3
   a *= 2</a><a style=""""></a></div></div>","backspace","backspace","1","71","for i in [1, 2]:
   a /= 3
   a *= 2","backspace","4"
"","html-keyboard-response","344","1319553","0.0-9.0-11.0-0.0-0.0","3674","<div><div style=""""><a style=""white-space:pre-wrap;""> for i in [1, 2, 3]:
   a += 4</a><a style=""""></a></div></div>","12","12","1","72","for i in [1, 2, 3]:
   a += 4","12","0"
"","html-keyboard-response","345","1320345","0.0-9.0-11.0-1.0-0.0","287","<div><div style=""""><a style=""white-space:pre-wrap;""> for i in [1, 2, 3]:
   a += 4</a><a style=""""></a></div></div>","16","16","1","72","for i in [1, 2, 3]:
   a += 4","16","1"
"","html-keyboard-response","346","1321145","0.0-9.0-11.0-2.0-0.0","288","<div><div style=""""><a style=""white-space:pre-wrap;""> for i in [1, 2, 3]:
   a += 4</a><a style=""""></a></div></div>","20","20","1","72","for i in [1, 2, 3]:
   a += 4","20","2"
"","html-keyboard-response","347","1322321","0.0-9.0-11.0-3.0-0.0","671","<div><div style=""""><a style=""white-space:pre-wrap;""> for i in [1, 2, 3]:
   a += 4</a><a style=""""></a></div></div>","backspace","backspace","1","72","for i in [1, 2, 3]:
   a += 4","backspace","3"
"","html-keyboard-response","348","1324089","0.0-10.0-1.0","1264","<p style=""font-size: 25px;"">Please press space to start the next program<br>>>>>>></p>"," ","","","","","",""
"","html-keyboard-response","349","1325712","0.0-10.0-2.0","1622","<div><div style="" font-size:25px; color:green;""><a style=""white-space:pre-wrap;""> a = 18</a><a style=""""></a></div></div>","","null","","28","a = 18","",""
"","html-keyboard-response","350","1327985","0.0-10.0-4.0-0.0-0.0","1760","<div><div style=""""><a style=""white-space:pre-wrap;""> for i in [1, 2]:
   a /= 3
   a *= 2</a><a style=""""></a></div></div>","6","6","1","29","for i in [1, 2]:
   a /= 3
   a *= 2","6","0"
"","html-keyboard-response","351","1329417","0.0-10.0-4.0-1.0-0.0","915","<div><div style=""""><a style=""white-space:pre-wrap;""> for i in [1, 2]:
   a /= 3
   a *= 2</a><a style=""""></a></div></div>","12","12","1","29","for i in [1, 2]:
   a /= 3
   a *= 2","12","1"
"","html-keyboard-response","352","1332025","0.0-10.0-4.0-2.0-0.0","2102","<div><div style=""""><a style=""white-space:pre-wrap;""> for i in [1, 2]:
   a /= 3
   a *= 2</a><a style=""""></a></div></div>","4","4","1","29","for i in [1, 2]:
   a /= 3
   a *= 2","4","2"
"","html-keyboard-response","353","1333953","0.0-10.0-4.0-3.0-0.0","1420","<div><div style=""""><a style=""white-space:pre-wrap;""> for i in [1, 2]:
   a /= 3
   a *= 2</a><a style=""""></a></div></div>","8","8","1","29","for i in [1, 2]:
   a /= 3
   a *= 2","8","3"
"","html-keyboard-response","354","1339872","0.0-10.0-4.0-4.0-0.0","5403","<div><div style=""""><a style=""white-space:pre-wrap;""> for i in [1, 2]:
   a /= 3
   a *= 2</a><a style=""""></a></div></div>","backspace","backspace","1","29","for i in [1, 2]:
   a /= 3
   a *= 2","backspace","4"
"","html-keyboard-response","355","1343232","0.0-10.0-5.0-0.0-0.0","2857","<div><div style=""""><a style=""white-space:pre-wrap;""> while a >= 2:
   a /= 2</a><a style=""""></a></div></div>","4","4","1","30","while a >= 2:
   a /= 2","4","0"
"","html-keyboard-response","356","1344440","0.0-10.0-5.0-1.0-0.0","697","<div><div style=""""><a style=""white-space:pre-wrap;""> while a >= 2:
   a /= 2</a><a style=""""></a></div></div>","2","2","1","30","while a >= 2:
   a /= 2","2","1"
"","html-keyboard-response","357","1345273","0.0-10.0-5.0-2.0-0.0","324","<div><div style=""""><a style=""white-space:pre-wrap;""> while a >= 2:
   a /= 2</a><a style=""""></a></div></div>","1","1","1","30","while a >= 2:
   a /= 2","1","2"
"","html-keyboard-response","358","1345969","0.0-10.0-5.0-3.0-0.0","192","<div><div style=""""><a style=""white-space:pre-wrap;""> while a >= 2:
   a /= 2</a><a style=""""></a></div></div>","backspace","backspace","1","30","while a >= 2:
   a /= 2","backspace","3"
"","html-keyboard-response","359","1349545","0.0-10.0-6.0-0.0-0.0","3066","<div><div style=""""><a style=""white-space:pre-wrap;""> while a <= 7:
   a += 2</a><a style=""""></a></div></div>","3","3","1","31","while a <= 7:
   a += 2","3","0"
"","html-keyboard-response","360","1350770","0.0-10.0-6.0-1.0-0.0","715","<div><div style=""""><a style=""white-space:pre-wrap;""> while a <= 7:
   a += 2</a><a style=""""></a></div></div>","5","5","1","31","while a <= 7:
   a += 2","5","1"
"","html-keyboard-response","361","1351561","0.0-10.0-6.0-2.0-0.0","289","<div><div style=""""><a style=""white-space:pre-wrap;""> while a <= 7:
   a += 2</a><a style=""""></a></div></div>","7","7","1","31","while a <= 7:
   a += 2","7","2"
"","html-keyboard-response","362","1352289","0.0-10.0-6.0-3.0-0.0","219","<div><div style=""""><a style=""white-space:pre-wrap;""> while a <= 7:
   a += 2</a><a style=""""></a></div></div>","9","9","1","31","while a <= 7:
   a += 2","9","3"
"","html-keyboard-response","363","1352905","0.0-10.0-6.0-4.0-0.0","105","<div><div style=""""><a style=""white-space:pre-wrap;""> while a <= 7:
   a += 2</a><a style=""""></a></div></div>","backspace","backspace","1","31","while a <= 7:
   a += 2","backspace","4"
"","html-keyboard-response","364","1359305","0.0-10.0-7.0-0.0-0.0","5898","<div><div style=""""><a style=""white-space:pre-wrap;""> while a >= 6:
   a += 9
   a /= 3</a><a style=""""></a></div></div>","18","18","1","32","while a >= 6:
   a += 9
   a /= 3","18","0"
"","html-keyboard-response","365","1360794","0.0-10.0-7.0-1.0-0.0","971","<div><div style=""""><a style=""white-space:pre-wrap;""> while a >= 6:
   a += 9
   a /= 3</a><a style=""""></a></div></div>","6","6","1","32","while a >= 6:
   a += 9
   a /= 3","6","1"
"","html-keyboard-response","366","1371449","0.0-10.0-7.0-2.0-0.0","10141","<div><div style=""""><a style=""white-space:pre-wrap;""> while a >= 6:
   a += 9
   a /= 3</a><a style=""""></a></div></div>","15","15","1","32","while a >= 6:
   a += 9
   a /= 3","15","2"
"","html-keyboard-response","367","1372537","0.0-10.0-7.0-3.0-0.0","573","<div><div style=""""><a style=""white-space:pre-wrap;""> while a >= 6:
   a += 9
   a /= 3</a><a style=""""></a></div></div>","5","5","1","32","while a >= 6:
   a += 9
   a /= 3","5","3"
"","html-keyboard-response","368","1373209","0.0-10.0-7.0-4.0-0.0","167","<div><div style=""""><a style=""white-space:pre-wrap;""> while a >= 6:
   a += 9
   a /= 3</a><a style=""""></a></div></div>","backspace","backspace","1","32","while a >= 6:
   a += 9
   a /= 3","backspace","4"
"","html-keyboard-response","369","1380657","0.0-10.0-8.0-0.0-0.0","6944","<div><div style=""""><a style=""white-space:pre-wrap;""> while a <= 11:
   a = round_down(a*1.5)</a><a style=""""></a></div></div>","7","7","1","33","while a <= 11:
   a = round_down(a*1.5)","7","0"
"","html-keyboard-response","370","1386441","0.0-10.0-8.0-1.0-0.0","5280","<div><div style=""""><a style=""white-space:pre-wrap;""> while a <= 11:
   a = round_down(a*1.5)</a><a style=""""></a></div></div>","10","10","1","33","while a <= 11:
   a = round_down(a*1.5)","10","1"
"","html-keyboard-response","371","1393139","0.0-10.0-8.0-2.0-0.0","6188","<div><div style=""""><a style=""white-space:pre-wrap;""> while a <= 11:
   a = round_down(a*1.5)</a><a style=""""></a></div></div>","14","15","0","33","while a <= 11:
   a = round_down(a*1.5)","15","2"
"","html-keyboard-response","373","1397841","0.0-10.0-8.0-3.0-0.0","689","<div><div style=""""><a style=""white-space:pre-wrap;""> while a <= 11:
   a = round_down(a*1.5)</a><a style=""""></a></div></div>","backspace","backspace","1","33","while a <= 11:
   a = round_down(a*1.5)","backspace","3"
"","html-keyboard-response","374","1404977","0.0-10.0-9.0-0.0-0.0","6628","<div><div style=""""><a style=""white-space:pre-wrap;""> for i in [1, 2]:
   a = average(a,3)</a><a style=""""></a></div></div>","9","9","1","34","for i in [1, 2]:
   a = average(a,3)","9","0"
"","html-keyboard-response","375","1409578","0.0-10.0-9.0-1.0-0.0","4091","<div><div style=""""><a style=""white-space:pre-wrap;""> for i in [1, 2]:
   a = average(a,3)</a><a style=""""></a></div></div>","6","6","1","34","for i in [1, 2]:
   a = average(a,3)","6","1"
"","html-keyboard-response","376","1411400","0.0-10.0-9.0-2.0-0.0","1308","<div><div style=""""><a style=""white-space:pre-wrap;""> for i in [1, 2]:
   a = average(a,3)</a><a style=""""></a></div></div>","backspace","backspace","1","34","for i in [1, 2]:
   a = average(a,3)","backspace","2"
"","html-keyboard-response","377","1416025","0.0-10.0-10.0-0.0-0.0","4121","<div><div style=""""><a style=""white-space:pre-wrap;""> for i in [1, 2, 3]:
   a *= 2
   a -= 5</a><a style=""""></a></div></div>","12","12","1","35","for i in [1, 2, 3]:
   a *= 2
   a -= 5","12","0"
"","html-keyboard-response","378","1418361","0.0-10.0-10.0-1.0-0.0","1834","<div><div style=""""><a style=""white-space:pre-wrap;""> for i in [1, 2, 3]:
   a *= 2
   a -= 5</a><a style=""""></a></div></div>","8","7","0","35","for i in [1, 2, 3]:
   a *= 2
   a -= 5","7","1"
"","html-keyboard-response","380","1423001","0.0-10.0-10.0-2.0-0.0","623","<div><div style=""""><a style=""white-space:pre-wrap;""> for i in [1, 2, 3]:
   a *= 2
   a -= 5</a><a style=""""></a></div></div>","14","14","1","35","for i in [1, 2, 3]:
   a *= 2
   a -= 5","14","2"
"","html-keyboard-response","381","1431529","0.0-10.0-10.0-3.0-0.0","8026","<div><div style=""""><a style=""white-space:pre-wrap;""> for i in [1, 2, 3]:
   a *= 2
   a -= 5</a><a style=""""></a></div></div>","9","9","1","35","for i in [1, 2, 3]:
   a *= 2
   a -= 5","9","3"
"","html-keyboard-response","382","1433944","0.0-10.0-10.0-4.0-0.0","1899","<div><div style=""""><a style=""white-space:pre-wrap;""> for i in [1, 2, 3]:
   a *= 2
   a -= 5</a><a style=""""></a></div></div>","18","18","1","35","for i in [1, 2, 3]:
   a *= 2
   a -= 5","18","4"
"","html-keyboard-response","383","1436345","0.0-10.0-10.0-5.0-0.0","1896","<div><div style=""""><a style=""white-space:pre-wrap;""> for i in [1, 2, 3]:
   a *= 2
   a -= 5</a><a style=""""></a></div></div>","13","13","1","35","for i in [1, 2, 3]:
   a *= 2
   a -= 5","13","5"
"","html-keyboard-response","384","1437201","0.0-10.0-10.0-6.0-0.0","346","<div><div style=""""><a style=""white-space:pre-wrap;""> for i in [1, 2, 3]:
   a *= 2
   a -= 5</a><a style=""""></a></div></div>","backspace","backspace","1","35","for i in [1, 2, 3]:
   a *= 2
   a -= 5","backspace","6"
"","html-keyboard-response","385","1442169","0.0-10.0-11.0-0.0-0.0","4452","<div><div style=""""><a style=""white-space:pre-wrap;""> while a >= 6:
   a += 4
   a -= 7</a><a style=""""></a></div></div>","17","17","1","36","while a >= 6:
   a += 4
   a -= 7","17","0"
"","html-keyboard-response","386","1443081","0.0-10.0-11.0-1.0-0.0","397","<div><div style=""""><a style=""white-space:pre-wrap;""> while a >= 6:
   a += 4
   a -= 7</a><a style=""""></a></div></div>","10","10","1","36","while a >= 6:
   a += 4
   a -= 7","10","1"
"","html-keyboard-response","387","1447417","0.0-10.0-11.0-2.0-0.0","3829","<div><div style=""""><a style=""white-space:pre-wrap;""> while a >= 6:
   a += 4
   a -= 7</a><a style=""""></a></div></div>","14","14","1","36","while a >= 6:
   a += 4
   a -= 7","14","2"
"","html-keyboard-response","388","1448456","0.0-10.0-11.0-3.0-0.0","525","<div><div style=""""><a style=""white-space:pre-wrap;""> while a >= 6:
   a += 4
   a -= 7</a><a style=""""></a></div></div>","7","7","1","36","while a >= 6:
   a += 4
   a -= 7","7","3"
"","html-keyboard-response","389","1450881","0.0-10.0-11.0-4.0-0.0","1918","<div><div style=""""><a style=""white-space:pre-wrap;""> while a >= 6:
   a += 4
   a -= 7</a><a style=""""></a></div></div>","11","11","1","36","while a >= 6:
   a += 4
   a -= 7","11","4"
"","html-keyboard-response","390","1459241","0.0-10.0-11.0-5.0-0.0","7858","<div><div style=""""><a style=""white-space:pre-wrap;""> while a >= 6:
   a += 4
   a -= 7</a><a style=""""></a></div></div>","5","4","0","36","while a >= 6:
   a += 4
   a -= 7","4","5"
"","html-keyboard-response","392","1463785","0.0-10.0-11.0-6.0-0.0","524","<div><div style=""""><a style=""white-space:pre-wrap;""> while a >= 6:
   a += 4
   a -= 7</a><a style=""""></a></div></div>","backspace","backspace","1","36","while a >= 6:
   a += 4
   a -= 7","backspace","6"
"","html-keyboard-response","393","1531432","0.0-11.0-0.0-0.0","67145","<p style=""position:absolute; top:30%; font-size:25px; color:green;"" >Take a short break now</p>"," ","","","","","",""
"","html-keyboard-response","394","1532784","0.0-11.0-1.0","1351","<p style=""font-size: 25px;"">Please press space to start the next program<br>>>>>>></p>"," ","","","","","",""
"","html-keyboard-response","395","1533784","0.0-11.0-2.0","999","<div><div style="" font-size:25px; color:green;""><a style=""white-space:pre-wrap;""> a = 16</a><a style=""""></a></div></div>","","null","","82","a = 16","",""
"","html-keyboard-response","396","1537919","0.0-11.0-4.0-0.0-0.0","3632","<div><div style=""""><a style=""white-space:pre-wrap;""> while a >= 6:
   a /= 2</a><a style=""""></a></div></div>","8","8","1","83","while a >= 6:
   a /= 2","8","0"
"","html-keyboard-response","397","1540288","0.0-11.0-4.0-1.0-0.0","1856","<div><div style=""""><a style=""white-space:pre-wrap;""> while a >= 6:
   a /= 2</a><a style=""""></a></div></div>","4","4","1","83","while a >= 6:
   a /= 2","4","1"
"","html-keyboard-response","398","1540911","0.0-11.0-4.0-2.0-0.0","108","<div><div style=""""><a style=""white-space:pre-wrap;""> while a >= 6:
   a /= 2</a><a style=""""></a></div></div>","backspace","backspace","1","83","while a >= 6:
   a /= 2","backspace","2"
"","html-keyboard-response","399","1547400","0.0-11.0-5.0-0.0-0.0","5973","<div><div style=""""><a style=""white-space:pre-wrap;""> while a <= 11:
   a = round_up(a*1.5)</a><a style=""""></a></div></div>","6","6","1","84","while a <= 11:
   a = round_up(a*1.5)","6","0"
"","html-keyboard-response","400","1552095","0.0-11.0-5.0-1.0-0.0","4181","<div><div style=""""><a style=""white-space:pre-wrap;""> while a <= 11:
   a = round_up(a*1.5)</a><a style=""""></a></div></div>","9","9","1","84","while a <= 11:
   a = round_up(a*1.5)","9","1"
"","html-keyboard-response","401","1558360","0.0-11.0-5.0-2.0-0.0","5753","<div><div style=""""><a style=""white-space:pre-wrap;""> while a <= 11:
   a = round_up(a*1.5)</a><a style=""""></a></div></div>","14","14","1","84","while a <= 11:
   a = round_up(a*1.5)","14","2"
"","html-keyboard-response","402","1568024","0.0-11.0-5.0-3.0-0.0","9150","<div><div style=""""><a style=""white-space:pre-wrap;""> while a <= 11:
   a = round_up(a*1.5)</a><a style=""""></a></div></div>","100","backspace","0","84","while a <= 11:
   a = round_up(a*1.5)","backspace","3"
"","html-keyboard-response","403","1572039","0.0-11.0-5.0-3.0-1.0-0.0","null","<div><p style=""font-size:25px; color:green;"">end of loop<br>>>>>>></p>
						<div>Hit the ""end loop"" key to continue</div></div>","null","","","","","",""
"","html-keyboard-response","404","1575240","0.0-11.0-5.0-3.1-0.1","3200","<div><div style=""""><a style=""white-space:pre-wrap;""> while a <= 11:
   a = round_up(a*1.5)</a><a style=""""></a></div></div>","backspace","backspace","1","84","while a <= 11:
   a = round_up(a*1.5)","backspace","3"
"","html-keyboard-response","405","1581104","0.0-11.0-6.0-0.0-0.0","5352","<div><div style=""""><a style=""white-space:pre-wrap;""> for i in [1, 2]:
   a += 5
   a -= 6</a><a style=""""></a></div></div>","19","19","1","85","for i in [1, 2]:
   a += 5
   a -= 6","19","0"
"","html-keyboard-response","406","1585032","0.0-11.0-6.0-1.0-0.0","3413","<div><div style=""""><a style=""white-space:pre-wrap;""> for i in [1, 2]:
   a += 5
   a -= 6</a><a style=""""></a></div></div>","13","13","1","85","for i in [1, 2]:
   a += 5
   a -= 6","13","1"
"","html-keyboard-response","407","1588040","0.0-11.0-6.0-2.0-0.0","2503","<div><div style=""""><a style=""white-space:pre-wrap;""> for i in [1, 2]:
   a += 5
   a -= 6</a><a style=""""></a></div></div>","18","18","1","85","for i in [1, 2]:
   a += 5
   a -= 6","18","2"
"","html-keyboard-response","408","1588999","0.0-11.0-6.0-3.0-0.0","451","<div><div style=""""><a style=""white-space:pre-wrap;""> for i in [1, 2]:
   a += 5
   a -= 6</a><a style=""""></a></div></div>","12","12","1","85","for i in [1, 2]:
   a += 5
   a -= 6","12","3"
"","html-keyboard-response","409","1590736","0.0-11.0-6.0-4.0-0.0","1220","<div><div style=""""><a style=""white-space:pre-wrap;""> for i in [1, 2]:
   a += 5
   a -= 6</a><a style=""""></a></div></div>","17","backspace","0","85","for i in [1, 2]:
   a += 5
   a -= 6","backspace","4"
