"success","trial_type","trial_index","time_elapsed","internal_node_id","rt","stimulus","response","expected_response","correct","uid","text1","correct_response","loop_step"
"true","fullscreen","0","21946","0.0-0.0","","","","","","","","",""
"","html-keyboard-response","1","25185","0.0-1.0","3236","Please make sure that your keyboard is in English mode. Press 'A' to continue","a","","","","","",""
"","html-keyboard-response","2","26198","0.0-2.0-1.0","1011","<p style=""font-size: 25px;"">Please press space to start the next program<br>>>>>>></p>"," ","","","","","",""
"","html-keyboard-response","3","27139","0.0-2.0-2.0","939","<div><div style="" font-size:25px; color:green;""><a style=""white-space:pre-wrap;""> a = 7</a><a style=""""></a></div></div>","","null","","10","a = 7","",""
"","html-keyboard-response","4","30480","0.0-2.0-4.0-0.0-0.0","2826","<div><div style=""""><a style=""white-space:pre-wrap;""> while a <= 14:
   a *= 2
   a -= 4</a><a style=""""></a></div></div>","14","14","1","11","while a <= 14:
   a *= 2
   a -= 4","14","0"
"","html-keyboard-response","5","31750","0.0-2.0-4.0-1.0-0.0","752","<div><div style=""""><a style=""white-space:pre-wrap;""> while a <= 14:
   a *= 2
   a -= 4</a><a style=""""></a></div></div>","10","10","1","11","while a <= 14:
   a *= 2
   a -= 4","10","1"
"","html-keyboard-response","6","34211","0.0-2.0-4.0-2.0-0.0","1953","<div><div style=""""><a style=""white-space:pre-wrap;""> while a <= 14:
   a *= 2
   a -= 4</a><a style=""""></a></div></div>","20","20","1","11","while a <= 14:
   a *= 2
   a -= 4","20","2"
"","html-keyboard-response","7","35360","0.0-2.0-4.0-3.0-0.0","632","<div><div style=""""><a style=""white-space:pre-wrap;""> while a <= 14:
   a *= 2
   a -= 4</a><a style=""""></a></div></div>","16","16","1","11","while a <= 14:
   a *= 2
   a -= 4","16","3"
"","html-keyboard-response","8","36114","0.0-2.0-4.0-4.0-0.0","252","<div><div style=""""><a style=""white-space:pre-wrap;""> while a <= 14:
   a *= 2
   a -= 4</a><a style=""""></a></div></div>","backspace","","1","","","backspace",""
"","html-keyboard-response","9","38763","0.0-2.0-5.0-0.0-0.0","2143","<div><div style=""""><a style=""white-space:pre-wrap;""> for i in [1, 2, 3]:
   a /= 4
   a *= 2</a><a style=""""></a></div></div>","4","4","1","12","for i in [1, 2, 3]:
   a /= 4
   a *= 2","4","0"
"","html-keyboard-response","10","39802","0.0-2.0-5.0-1.0-0.0","523","<div><div style=""""><a style=""white-space:pre-wrap;""> for i in [1, 2, 3]:
   a /= 4
   a *= 2</a><a style=""""></a></div></div>","8","8","1","12","for i in [1, 2, 3]:
   a /= 4
   a *= 2","8","1"
"","html-keyboard-response","11","43121","0.0-2.0-5.0-2.0-0.0","2816","<div><div style=""""><a style=""white-space:pre-wrap;""> for i in [1, 2, 3]:
   a /= 4
   a *= 2</a><a style=""""></a></div></div>","2","2","1","12","for i in [1, 2, 3]:
   a /= 4
   a *= 2","2","2"
"","html-keyboard-response","12","45038","0.0-2.0-5.0-3.0-0.0","1403","<div><div style=""""><a style=""white-space:pre-wrap;""> for i in [1, 2, 3]:
   a /= 4
   a *= 2</a><a style=""""></a></div></div>","4","4","1","12","for i in [1, 2, 3]:
   a /= 4
   a *= 2","4","3"
"","html-keyboard-response","13","46672","0.0-2.0-5.0-4.0-0.0","1125","<div><div style=""""><a style=""white-space:pre-wrap;""> for i in [1, 2, 3]:
   a /= 4
   a *= 2</a><a style=""""></a></div></div>","1","1","1","12","for i in [1, 2, 3]:
   a /= 4
   a *= 2","1","4"
"","html-keyboard-response","14","47553","0.0-2.0-5.0-5.0-0.0","372","<div><div style=""""><a style=""white-space:pre-wrap;""> for i in [1, 2, 3]:
   a /= 4
   a *= 2</a><a style=""""></a></div></div>","2","2","1","12","for i in [1, 2, 3]:
   a /= 4
   a *= 2","2","5"
"","html-keyboard-response","15","48167","0.0-2.0-5.0-6.0-0.0","107","<div><div style=""""><a style=""white-space:pre-wrap;""> for i in [1, 2, 3]:
   a /= 4
   a *= 2</a><a style=""""></a></div></div>","backspace","","1","","","backspace",""
"","html-keyboard-response","16","53090","0.0-2.0-6.0-0.0-0.0","4419","<div><div style=""""><a style=""white-space:pre-wrap;""> for i in [1, 2]:
   a = round_up(a*2.5)</a><a style=""""></a></div></div>","5","5","1","13","for i in [1, 2]:
   a = round_up(a*2.5)","5","0"
"","html-keyboard-response","17","56558","0.0-2.0-6.0-1.0-0.0","2953","<div><div style=""""><a style=""white-space:pre-wrap;""> for i in [1, 2]:
   a = round_up(a*2.5)</a><a style=""""></a></div></div>","13","13","1","13","for i in [1, 2]:
   a = round_up(a*2.5)","13","1"
"","html-keyboard-response","18","57607","0.0-2.0-6.0-2.0-0.0","533","<div><div style=""""><a style=""white-space:pre-wrap;""> for i in [1, 2]:
   a = round_up(a*2.5)</a><a style=""""></a></div></div>","backspace","","1","","","backspace",""
"","html-keyboard-response","19","62662","0.0-2.0-7.0-0.0-0.0","4538","<div><div style=""""><a style=""white-space:pre-wrap;""> for i in [1, 2, 3]:
   a = average(a,5)</a><a style=""""></a></div></div>","9","9","1","14","for i in [1, 2, 3]:
   a = average(a,5)","9","0"
"","html-keyboard-response","20","65732","0.0-2.0-7.0-1.0-0.0","2563","<div><div style=""""><a style=""white-space:pre-wrap;""> for i in [1, 2, 3]:
   a = average(a,5)</a><a style=""""></a></div></div>","7","7","1","14","for i in [1, 2, 3]:
   a = average(a,5)","7","1"
"","html-keyboard-response","21","68832","0.0-2.0-7.0-2.0-0.0","2590","<div><div style=""""><a style=""white-space:pre-wrap;""> for i in [1, 2, 3]:
   a = average(a,5)</a><a style=""""></a></div></div>","6","6","1","14","for i in [1, 2, 3]:
   a = average(a,5)","6","2"
"","html-keyboard-response","22","69634","0.0-2.0-7.0-3.0-0.0","291","<div><div style=""""><a style=""white-space:pre-wrap;""> for i in [1, 2, 3]:
   a = average(a,5)</a><a style=""""></a></div></div>","backspace","","1","","","backspace",""
"","html-keyboard-response","23","72356","0.0-2.0-8.0-0.0-0.0","2210","<div><div style=""""><a style=""white-space:pre-wrap;""> for i in [1, 2]:
   a += 2
   a /= 2</a><a style=""""></a></div></div>","8","8","1","15","for i in [1, 2]:
   a += 2
   a /= 2","8","0"
"","html-keyboard-response","24","74016","0.0-2.0-8.0-1.0-0.0","1155","<div><div style=""""><a style=""white-space:pre-wrap;""> for i in [1, 2]:
   a += 2
   a /= 2</a><a style=""""></a></div></div>","4","4","1","15","for i in [1, 2]:
   a += 2
   a /= 2","4","1"
"","html-keyboard-response","25","77838","0.0-2.0-8.0-2.0-0.0","3317","<div><div style=""""><a style=""white-space:pre-wrap;""> for i in [1, 2]:
   a += 2
   a /= 2</a><a style=""""></a></div></div>","6","6","1","15","for i in [1, 2]:
   a += 2
   a /= 2","6","2"
"","html-keyboard-response","26","78511","0.0-2.0-8.0-3.0-0.0","159","<div><div style=""""><a style=""white-space:pre-wrap;""> for i in [1, 2]:
   a += 2
   a /= 2</a><a style=""""></a></div></div>","3","3","1","15","for i in [1, 2]:
   a += 2
   a /= 2","3","3"
"","html-keyboard-response","27","79192","0.0-2.0-8.0-4.0-0.0","167","<div><div style=""""><a style=""white-space:pre-wrap;""> for i in [1, 2]:
   a += 2
   a /= 2</a><a style=""""></a></div></div>","backspace","","1","","","backspace",""
"","html-keyboard-response","28","82118","0.0-2.0-9.0-0.0-0.0","2422","<div><div style=""""><a style=""white-space:pre-wrap;""> while a <= 9:
   a *= 2</a><a style=""""></a></div></div>","6","6","1","16","while a <= 9:
   a *= 2","6","0"
"","html-keyboard-response","29","85273","0.0-2.0-9.0-1.0-0.0","2639","<div><div style=""""><a style=""white-space:pre-wrap;""> while a <= 9:
   a *= 2</a><a style=""""></a></div></div>","12","12","1","16","while a <= 9:
   a *= 2","12","1"
"","html-keyboard-response","30","85933","0.0-2.0-9.0-2.0-0.0","151","<div><div style=""""><a style=""white-space:pre-wrap;""> while a <= 9:
   a *= 2</a><a style=""""></a></div></div>","backspace","","1","","","backspace",""
"","html-keyboard-response","31","90289","0.0-2.0-10.0-0.0-0.0","3844","<div><div style=""""><a style=""white-space:pre-wrap;""> while a <= 14:
   a += 6
   a -= 4</a><a style=""""></a></div></div>","18","18","1","17","while a <= 14:
   a += 6
   a -= 4","18","0"
"","html-keyboard-response","32","92418","0.0-2.0-10.0-1.0-0.0","1624","<div><div style=""""><a style=""white-space:pre-wrap;""> while a <= 14:
   a += 6
   a -= 4</a><a style=""""></a></div></div>","14","14","1","17","while a <= 14:
   a += 6
   a -= 4","14","1"
"","html-keyboard-response","33","99663","0.0-2.0-10.0-2.0-0.0","6738","<div><div style=""""><a style=""white-space:pre-wrap;""> while a <= 14:
   a += 6
   a -= 4</a><a style=""""></a></div></div>","20","20","1","17","while a <= 14:
   a += 6
   a -= 4","20","2"
"","html-keyboard-response","34","102071","0.0-2.0-10.0-3.0-0.0","1892","<div><div style=""""><a style=""white-space:pre-wrap;""> while a <= 14:
   a += 6
   a -= 4</a><a style=""""></a></div></div>","16","16","1","17","while a <= 14:
   a += 6
   a -= 4","16","3"
"","html-keyboard-response","35","102688","0.0-2.0-10.0-4.0-0.0","104","<div><div style=""""><a style=""white-space:pre-wrap;""> while a <= 14:
   a += 6
   a -= 4</a><a style=""""></a></div></div>","backspace","","1","","","backspace",""
"","html-keyboard-response","36","105898","0.0-2.0-11.0-0.0-0.0","2700","<div><div style=""""><a style=""white-space:pre-wrap;""> for i in [1, 2, 3, 4]:
   a -= 3</a><a style=""""></a></div></div>","13","13","1","18","for i in [1, 2, 3, 4]:
   a -= 3","13","0"
"","html-keyboard-response","37","106905","0.0-2.0-11.0-1.0-0.0","494","<div><div style=""""><a style=""white-space:pre-wrap;""> for i in [1, 2, 3, 4]:
   a -= 3</a><a style=""""></a></div></div>","10","10","1","18","for i in [1, 2, 3, 4]:
   a -= 3","10","1"
"","html-keyboard-response","38","107837","0.0-2.0-11.0-2.0-0.0","424","<div><div style=""""><a style=""white-space:pre-wrap;""> for i in [1, 2, 3, 4]:
   a -= 3</a><a style=""""></a></div></div>","7","7","1","18","for i in [1, 2, 3, 4]:
   a -= 3","7","2"
"","html-keyboard-response","39","108998","0.0-2.0-11.0-3.0-0.0","658","<div><div style=""""><a style=""white-space:pre-wrap;""> for i in [1, 2, 3, 4]:
   a -= 3</a><a style=""""></a></div></div>","4","4","1","18","for i in [1, 2, 3, 4]:
   a -= 3","4","3"
"","html-keyboard-response","40","109841","0.0-2.0-11.0-4.0-0.0","332","<div><div style=""""><a style=""white-space:pre-wrap;""> for i in [1, 2, 3, 4]:
   a -= 3</a><a style=""""></a></div></div>","backspace","","1","","","backspace",""
"","html-keyboard-response","41","112097","0.0-3.0-1.0","1748","<p style=""font-size: 25px;"">Please press space to start the next program<br>>>>>>></p>"," ","","","","","",""
"","html-keyboard-response","42","113212","0.0-3.0-2.0","1114","<div><div style="" font-size:25px; color:green;""><a style=""white-space:pre-wrap;""> a = 18</a><a style=""""></a></div></div>","","null","","19","a = 18","",""
"","html-keyboard-response","43","116013","0.0-3.0-4.0-0.0-0.0","2284","<div><div style=""""><a style=""white-space:pre-wrap;""> while a >= 10:
   a /= 3
   a *= 2</a><a style=""""></a></div></div>","6","6","1","20","while a >= 10:
   a /= 3
   a *= 2","6","0"
"","html-keyboard-response","44","117502","0.0-3.0-4.0-1.0-0.0","972","<div><div style=""""><a style=""white-space:pre-wrap;""> while a >= 10:
   a /= 3
   a *= 2</a><a style=""""></a></div></div>","12","12","1","20","while a >= 10:
   a /= 3
   a *= 2","12","1"
"","html-keyboard-response","45","121495","0.0-3.0-4.0-2.0-0.0","3491","<div><div style=""""><a style=""white-space:pre-wrap;""> while a >= 10:
   a /= 3
   a *= 2</a><a style=""""></a></div></div>","4","4","1","20","while a >= 10:
   a /= 3
   a *= 2","4","2"
"","html-keyboard-response","46","123347","0.0-3.0-4.0-3.0-0.0","1341","<div><div style=""""><a style=""white-space:pre-wrap;""> while a >= 10:
   a /= 3
   a *= 2</a><a style=""""></a></div></div>","8","8","1","20","while a >= 10:
   a /= 3
   a *= 2","8","3"
"","html-keyboard-response","47","124290","0.0-3.0-4.0-4.0-0.0","432","<div><div style=""""><a style=""white-space:pre-wrap;""> while a >= 10:
   a /= 3
   a *= 2</a><a style=""""></a></div></div>","backspace","","1","","","backspace",""
"","html-keyboard-response","48","130918","0.0-3.0-5.0-0.0-0.0","6116","<div><div style=""""><a style=""white-space:pre-wrap;""> while a >= 2:
   a /= 2</a><a style=""""></a></div></div>","4","4","1","21","while a >= 2:
   a /= 2","4","0"
"","html-keyboard-response","49","132606","0.0-3.0-5.0-1.0-0.0","1185","<div><div style=""""><a style=""white-space:pre-wrap;""> while a >= 2:
   a /= 2</a><a style=""""></a></div></div>","2","2","1","21","while a >= 2:
   a /= 2","2","1"
"","html-keyboard-response","50","133548","0.0-3.0-5.0-2.0-0.0","426","<div><div style=""""><a style=""white-space:pre-wrap;""> while a >= 2:
   a /= 2</a><a style=""""></a></div></div>","1","1","1","21","while a >= 2:
   a /= 2","1","2"
"","html-keyboard-response","51","134094","0.0-3.0-5.0-3.0-0.0","29","<div><div style=""""><a style=""white-space:pre-wrap;""> while a >= 2:
   a /= 2</a><a style=""""></a></div></div>","backspace","","1","","","backspace",""
"","html-keyboard-response","52","136237","0.0-3.0-6.0-0.0-0.0","1626","<div><div style=""""><a style=""white-space:pre-wrap;""> for i in [1, 2, 3, 4]:
   a += 2</a><a style=""""></a></div></div>","3","3","1","22","for i in [1, 2, 3, 4]:
   a += 2","3","0"
"","html-keyboard-response","53","137032","0.0-3.0-6.0-1.0-0.0","290","<div><div style=""""><a style=""white-space:pre-wrap;""> for i in [1, 2, 3, 4]:
   a += 2</a><a style=""""></a></div></div>","5","5","1","22","for i in [1, 2, 3, 4]:
   a += 2","5","1"
"","html-keyboard-response","54","137823","0.0-3.0-6.0-2.0-0.0","279","<div><div style=""""><a style=""white-space:pre-wrap;""> for i in [1, 2, 3, 4]:
   a += 2</a><a style=""""></a></div></div>","7","7","1","22","for i in [1, 2, 3, 4]:
   a += 2","7","2"
"","html-keyboard-response","55","138567","0.0-3.0-6.0-3.0-0.0","236","<div><div style=""""><a style=""white-space:pre-wrap;""> for i in [1, 2, 3, 4]:
   a += 2</a><a style=""""></a></div></div>","9","9","1","22","for i in [1, 2, 3, 4]:
   a += 2","9","3"
"","html-keyboard-response","56","139367","0.0-3.0-6.0-4.0-0.0","297","<div><div style=""""><a style=""white-space:pre-wrap;""> for i in [1, 2, 3, 4]:
   a += 2</a><a style=""""></a></div></div>","backspace","","1","","","backspace",""
"","html-keyboard-response","57","142300","0.0-3.0-7.0-0.0-0.0","2417","<div><div style=""""><a style=""white-space:pre-wrap;""> while a >= 6:
   a += 9
   a /= 3</a><a style=""""></a></div></div>","18","18","1","23","while a >= 6:
   a += 9
   a /= 3","18","0"
"","html-keyboard-response","58","144255","0.0-3.0-7.0-1.0-0.0","1454","<div><div style=""""><a style=""white-space:pre-wrap;""> while a >= 6:
   a += 9
   a /= 3</a><a style=""""></a></div></div>","6","6","1","23","while a >= 6:
   a += 9
   a /= 3","6","1"
"","html-keyboard-response","59","149675","0.0-3.0-7.0-2.0-0.0","4905","<div><div style=""""><a style=""white-space:pre-wrap;""> while a >= 6:
   a += 9
   a /= 3</a><a style=""""></a></div></div>","15","15","1","23","while a >= 6:
   a += 9
   a /= 3","15","2"
"","html-keyboard-response","60","151326","0.0-3.0-7.0-3.0-0.0","1136","<div><div style=""""><a style=""white-space:pre-wrap;""> while a >= 6:
   a += 9
   a /= 3</a><a style=""""></a></div></div>","5","5","1","23","while a >= 6:
   a += 9
   a /= 3","5","3"
"","html-keyboard-response","61","152429","0.0-3.0-7.0-4.0-0.0","601","<div><div style=""""><a style=""white-space:pre-wrap;""> while a >= 6:
   a += 9
   a /= 3</a><a style=""""></a></div></div>","backspace","","1","","","backspace",""
"","html-keyboard-response","62","156994","0.0-3.0-8.0-0.0-0.0","4049","<div><div style=""""><a style=""white-space:pre-wrap;""> for i in [1, 2, 3]:
   a = round_down(a*1.5)</a><a style=""""></a></div></div>","7","7","1","24","for i in [1, 2, 3]:
   a = round_down(a*1.5)","7","0"
"","html-keyboard-response","63","160086","0.0-3.0-8.0-1.0-0.0","2574","<div><div style=""""><a style=""white-space:pre-wrap;""> for i in [1, 2, 3]:
   a = round_down(a*1.5)</a><a style=""""></a></div></div>","10","10","1","24","for i in [1, 2, 3]:
   a = round_down(a*1.5)","10","1"
"","html-keyboard-response","64","162012","0.0-3.0-8.0-2.0-0.0","1421","<div><div style=""""><a style=""white-space:pre-wrap;""> for i in [1, 2, 3]:
   a = round_down(a*1.5)</a><a style=""""></a></div></div>","15","15","1","24","for i in [1, 2, 3]:
   a = round_down(a*1.5)","15","2"
"","html-keyboard-response","65","162724","0.0-3.0-8.0-3.0-0.0","200","<div><div style=""""><a style=""white-space:pre-wrap;""> for i in [1, 2, 3]:
   a = round_down(a*1.5)</a><a style=""""></a></div></div>","backspace","","1","","","backspace",""
"","html-keyboard-response","66","166639","0.0-3.0-9.0-0.0-0.0","3405","<div><div style=""""><a style=""white-space:pre-wrap;""> for i in [1, 2]:
   a = average(a,3)</a><a style=""""></a></div></div>","9","9","1","25","for i in [1, 2]:
   a = average(a,3)","9","0"
"","html-keyboard-response","67","168987","0.0-3.0-9.0-1.0-0.0","1832","<div><div style=""""><a style=""white-space:pre-wrap;""> for i in [1, 2]:
   a = average(a,3)</a><a style=""""></a></div></div>","6","6","1","25","for i in [1, 2]:
   a = average(a,3)","6","1"
"","html-keyboard-response","68","169716","0.0-3.0-9.0-2.0-0.0","215","<div><div style=""""><a style=""white-space:pre-wrap;""> for i in [1, 2]:
   a = average(a,3)</a><a style=""""></a></div></div>","backspace","","1","","","backspace",""
"","html-keyboard-response","69","172376","0.0-3.0-10.0-0.0-0.0","2151","<div><div style=""""><a style=""white-space:pre-wrap;""> while a <= 11:
   a *= 2
   a -= 5</a><a style=""""></a></div></div>","12","12","1","26","while a <= 11:
   a *= 2
   a -= 5","12","0"
"","html-keyboard-response","70","174372","0.0-3.0-10.0-1.0-0.0","1491","<div><div style=""""><a style=""white-space:pre-wrap;""> while a <= 11:
   a *= 2
   a -= 5</a><a style=""""></a></div></div>","7","7","1","26","while a <= 11:
   a *= 2
   a -= 5","7","1"
"","html-keyboard-response","71","176444","0.0-3.0-10.0-2.0-0.0","1561","<div><div style=""""><a style=""white-space:pre-wrap;""> while a <= 11:
   a *= 2
   a -= 5</a><a style=""""></a></div></div>","14","14","1","26","while a <= 11:
   a *= 2
   a -= 5","14","2"
"","html-keyboard-response","72","179472","0.0-3.0-10.0-3.0-0.0","2525","<div><div style=""""><a style=""white-space:pre-wrap;""> while a <= 11:
   a *= 2
   a -= 5</a><a style=""""></a></div></div>","9","9","1","26","while a <= 11:
   a *= 2
   a -= 5","9","3"
"","html-keyboard-response","73","181105","0.0-3.0-10.0-4.0-0.0","1119","<div><div style=""""><a style=""white-space:pre-wrap;""> while a <= 11:
   a *= 2
   a -= 5</a><a style=""""></a></div></div>","18","18","1","26","while a <= 11:
   a *= 2
   a -= 5","18","4"
"","html-keyboard-response","74","182349","0.0-3.0-10.0-5.0-0.0","737","<div><div style=""""><a style=""white-space:pre-wrap;""> while a <= 11:
   a *= 2
   a -= 5</a><a style=""""></a></div></div>","13","13","1","26","while a <= 11:
   a *= 2
   a -= 5","13","5"
"","html-keyboard-response","75","182995","0.0-3.0-10.0-6.0-0.0","140","<div><div style=""""><a style=""white-space:pre-wrap;""> while a <= 11:
   a *= 2
   a -= 5</a><a style=""""></a></div></div>","backspace","","1","","","backspace",""
"","html-keyboard-response","76","185833","0.0-3.0-11.0-0.0-0.0","2334","<div><div style=""""><a style=""white-space:pre-wrap;""> while a >= 6:
   a += 4
   a -= 7</a><a style=""""></a></div></div>","17","17","1","27","while a >= 6:
   a += 4
   a -= 7","17","0"
"","html-keyboard-response","77","188997","0.0-3.0-11.0-1.0-0.0","2657","<div><div style=""""><a style=""white-space:pre-wrap;""> while a >= 6:
   a += 4
   a -= 7</a><a style=""""></a></div></div>","10","10","1","27","while a >= 6:
   a += 4
   a -= 7","10","1"
"","html-keyboard-response","78","191341","0.0-3.0-11.0-2.0-0.0","1830","<div><div style=""""><a style=""white-space:pre-wrap;""> while a >= 6:
   a += 4
   a -= 7</a><a style=""""></a></div></div>","14","14","1","27","while a >= 6:
   a += 4
   a -= 7","14","2"
"","html-keyboard-response","79","193886","0.0-3.0-11.0-3.0-0.0","2035","<div><div style=""""><a style=""white-space:pre-wrap;""> while a >= 6:
   a += 4
   a -= 7</a><a style=""""></a></div></div>","7","7","1","27","while a >= 6:
   a += 4
   a -= 7","7","3"
"","html-keyboard-response","80","197360","0.0-3.0-11.0-4.0-0.0","2972","<div><div style=""""><a style=""white-space:pre-wrap;""> while a >= 6:
   a += 4
   a -= 7</a><a style=""""></a></div></div>","11","11","1","27","while a >= 6:
   a += 4
   a -= 7","11","4"
"","html-keyboard-response","81","202759","0.0-3.0-11.0-5.0-0.0","4893","<div><div style=""""><a style=""white-space:pre-wrap;""> while a >= 6:
   a += 4
   a -= 7</a><a style=""""></a></div></div>","4","4","1","27","while a >= 6:
   a += 4
   a -= 7","4","5"
"","html-keyboard-response","82","203584","0.0-3.0-11.0-6.0-0.0","309","<div><div style=""""><a style=""white-space:pre-wrap;""> while a >= 6:
   a += 4
   a -= 7</a><a style=""""></a></div></div>","backspace","","1","","","backspace",""
"","html-keyboard-response","83","206496","0.0-4.0-1.0","2397","<p style=""font-size: 25px;"">Please press space to start the next program<br>>>>>>></p>"," ","","","","","",""
"","html-keyboard-response","84","207755","0.0-4.0-2.0","1257","<div><div style="" font-size:25px; color:green;""><a style=""white-space:pre-wrap;""> a = 11</a><a style=""""></a></div></div>","","null","","64","a = 11","",""
"","html-keyboard-response","85","209912","0.0-4.0-4.0-0.0-0.0","1648","<div><div style=""""><a style=""white-space:pre-wrap;""> for i in [1, 2]:
   a += 4
   a /= 3</a><a style=""""></a></div></div>","5","15","0","65","for i in [1, 2]:
   a += 4
   a /= 3","15","0"
"","html-keyboard-response","87","214188","0.0-4.0-4.0-1.0-0.0","258","<div><div style=""""><a style=""white-space:pre-wrap;""> for i in [1, 2]:
   a += 4
   a /= 3</a><a style=""""></a></div></div>","5","5","1","65","for i in [1, 2]:
   a += 4
   a /= 3","5","1"
"","html-keyboard-response","88","216560","0.0-4.0-4.0-2.0-0.0","1859","<div><div style=""""><a style=""white-space:pre-wrap;""> for i in [1, 2]:
   a += 4
   a /= 3</a><a style=""""></a></div></div>","9","9","1","65","for i in [1, 2]:
   a += 4
   a /= 3","9","2"
"","html-keyboard-response","89","217817","0.0-4.0-4.0-3.0-0.0","755","<div><div style=""""><a style=""white-space:pre-wrap;""> for i in [1, 2]:
   a += 4
   a /= 3</a><a style=""""></a></div></div>","3","3","1","65","for i in [1, 2]:
   a += 4
   a /= 3","3","3"
"","html-keyboard-response","90","218337","0.0-4.0-4.0-4.0-0.0","14","<div><div style=""""><a style=""white-space:pre-wrap;""> for i in [1, 2]:
   a += 4
   a /= 3</a><a style=""""></a></div></div>","backspace","","1","","","backspace",""
"","html-keyboard-response","91","224816","0.0-4.0-5.0-0.0-0.0","5970","<div><div style=""""><a style=""white-space:pre-wrap;""> for i in [1, 2]:
   a = round_down(a*2.5)</a><a style=""""></a></div></div>","7","7","1","66","for i in [1, 2]:
   a = round_down(a*2.5)","7","0"
"","html-keyboard-response","92","232380","0.0-4.0-5.0-1.0-0.0","7052","<div><div style=""""><a style=""white-space:pre-wrap;""> for i in [1, 2]:
   a = round_down(a*2.5)</a><a style=""""></a></div></div>","17","17","1","66","for i in [1, 2]:
   a = round_down(a*2.5)","17","1"
"","html-keyboard-response","93","235179","0.0-4.0-5.0-2.0-0.0","2295","<div><div style=""""><a style=""white-space:pre-wrap;""> for i in [1, 2]:
   a = round_down(a*2.5)</a><a style=""""></a></div></div>","backspace","","1","","","backspace",""
"","html-keyboard-response","94","240320","0.0-4.0-6.0-0.0-0.0","4625","<div><div style=""""><a style=""white-space:pre-wrap;""> while a >= 3:
   a = average(a,1)</a><a style=""""></a></div></div>","9","9","1","67","while a >= 3:
   a = average(a,1)","9","0"
"","html-keyboard-response","95","242411","0.0-4.0-6.0-1.0-0.0","1587","<div><div style=""""><a style=""white-space:pre-wrap;""> while a >= 3:
   a = average(a,1)</a><a style=""""></a></div></div>","5","5","1","67","while a >= 3:
   a = average(a,1)","5","1"
"","html-keyboard-response","96","243929","0.0-4.0-6.0-2.0-0.0","1010","<div><div style=""""><a style=""white-space:pre-wrap;""> while a >= 3:
   a = average(a,1)</a><a style=""""></a></div></div>","3","3","1","67","while a >= 3:
   a = average(a,1)","3","2"
"","html-keyboard-response","97","246258","0.0-4.0-6.0-3.0-0.0","1812","<div><div style=""""><a style=""white-space:pre-wrap;""> while a >= 3:
   a = average(a,1)</a><a style=""""></a></div></div>","2","2","1","67","while a >= 3:
   a = average(a,1)","2","3"
"","html-keyboard-response","98","246987","0.0-4.0-6.0-4.0-0.0","226","<div><div style=""""><a style=""white-space:pre-wrap;""> while a >= 3:
   a = average(a,1)</a><a style=""""></a></div></div>","backspace","","1","","","backspace",""
"","html-keyboard-response","99","249259","0.0-4.0-7.0-0.0-0.0","1761","<div><div style=""""><a style=""white-space:pre-wrap;""> for i in [1, 2]:
   a *= 3
   a -= 1</a><a style=""""></a></div></div>","6","6","1","68","for i in [1, 2]:
   a *= 3
   a -= 1","6","0"
"","html-keyboard-response","100","250681","0.0-4.0-7.0-1.0-0.0","917","<div><div style=""""><a style=""white-space:pre-wrap;""> for i in [1, 2]:
   a *= 3
   a -= 1</a><a style=""""></a></div></div>","5","5","1","68","for i in [1, 2]:
   a *= 3
   a -= 1","5","1"
"","html-keyboard-response","101","252075","0.0-4.0-7.0-2.0-0.0","888","<div><div style=""""><a style=""white-space:pre-wrap;""> for i in [1, 2]:
   a *= 3
   a -= 1</a><a style=""""></a></div></div>","15","15","1","68","for i in [1, 2]:
   a *= 3
   a -= 1","15","2"
"","html-keyboard-response","102","252837","0.0-4.0-7.0-3.0-0.0","251","<div><div style=""""><a style=""white-space:pre-wrap;""> for i in [1, 2]:
   a *= 3
   a -= 1</a><a style=""""></a></div></div>","14","14","1","68","for i in [1, 2]:
   a *= 3
   a -= 1","14","3"
"","html-keyboard-response","103","253703","0.0-4.0-7.0-4.0-0.0","350","<div><div style=""""><a style=""white-space:pre-wrap;""> for i in [1, 2]:
   a *= 3
   a -= 1</a><a style=""""></a></div></div>","backspace","","1","","","backspace",""
"","html-keyboard-response","104","256244","0.0-4.0-8.0-0.0-0.0","2027","<div><div style=""""><a style=""white-space:pre-wrap;""> for i in [1, 2, 3]:
   a -= 5
   a += 1</a><a style=""""></a></div></div>","11","9","0","69","for i in [1, 2, 3]:
   a -= 5
   a += 1","9","0"
"","html-keyboard-response","106","261554","0.0-4.0-8.0-1.0-0.0","1287","<div><div style=""""><a style=""white-space:pre-wrap;""> for i in [1, 2, 3]:
   a -= 5
   a += 1</a><a style=""""></a></div></div>","10","10","1","69","for i in [1, 2, 3]:
   a -= 5
   a += 1","10","1"
"","html-keyboard-response","107","263825","0.0-4.0-8.0-2.0-0.0","1755","<div><div style=""""><a style=""white-space:pre-wrap;""> for i in [1, 2, 3]:
   a -= 5
   a += 1</a><a style=""""></a></div></div>","5","5","1","69","for i in [1, 2, 3]:
   a -= 5
   a += 1","5","2"
"","html-keyboard-response","108","265113","0.0-4.0-8.0-3.0-0.0","782","<div><div style=""""><a style=""white-space:pre-wrap;""> for i in [1, 2, 3]:
   a -= 5
   a += 1</a><a style=""""></a></div></div>","6","6","1","69","for i in [1, 2, 3]:
   a -= 5
   a += 1","6","3"
"","html-keyboard-response","109","266539","0.0-4.0-8.0-4.0-0.0","918","<div><div style=""""><a style=""white-space:pre-wrap;""> for i in [1, 2, 3]:
   a -= 5
   a += 1</a><a style=""""></a></div></div>","1","1","1","69","for i in [1, 2, 3]:
   a -= 5
   a += 1","1","4"
"","html-keyboard-response","110","267356","0.0-4.0-8.0-5.0-0.0","313","<div><div style=""""><a style=""white-space:pre-wrap;""> for i in [1, 2, 3]:
   a -= 5
   a += 1</a><a style=""""></a></div></div>","2","2","1","69","for i in [1, 2, 3]:
   a -= 5
   a += 1","2","5"
"","html-keyboard-response","111","268023","0.0-4.0-8.0-6.0-0.0","164","<div><div style=""""><a style=""white-space:pre-wrap;""> for i in [1, 2, 3]:
   a -= 5
   a += 1</a><a style=""""></a></div></div>","backspace","","1","","","backspace",""
"","html-keyboard-response","112","271495","0.0-4.0-9.0-0.0-0.0","2957","<div><div style=""""><a style=""white-space:pre-wrap;""> while a <= 15:
   a *= 3</a><a style=""""></a></div></div>","6","6","1","70","while a <= 15:
   a *= 3","6","0"
"","html-keyboard-response","113","273771","0.0-4.0-9.0-1.0-0.0","1761","<div><div style=""""><a style=""white-space:pre-wrap;""> while a <= 15:
   a *= 3</a><a style=""""></a></div></div>","12","18","0","70","while a <= 15:
   a *= 3","18","1"
"","html-keyboard-response","115","277887","0.0-4.0-9.0-2.0-0.0","87","<div><div style=""""><a style=""white-space:pre-wrap;""> while a <= 15:
   a *= 3</a><a style=""""></a></div></div>","backspace","","1","","","backspace",""
"","html-keyboard-response","116","281335","0.0-4.0-10.0-0.0-0.0","2934","<div><div style=""""><a style=""white-space:pre-wrap;""> for i in [1, 2]:
   a /= 3
   a *= 2</a><a style=""""></a></div></div>","6","6","1","71","for i in [1, 2]:
   a /= 3
   a *= 2","6","0"
"","html-keyboard-response","117","282934","0.0-4.0-10.0-1.0-0.0","1092","<div><div style=""""><a style=""white-space:pre-wrap;""> for i in [1, 2]:
   a /= 3
   a *= 2</a><a style=""""></a></div></div>","12","12","1","71","for i in [1, 2]:
   a /= 3
   a *= 2","12","1"
"","html-keyboard-response","118","285554","0.0-4.0-10.0-2.0-0.0","2117","<div><div style=""""><a style=""white-space:pre-wrap;""> for i in [1, 2]:
   a /= 3
   a *= 2</a><a style=""""></a></div></div>","4","4","1","71","for i in [1, 2]:
   a /= 3
   a *= 2","4","2"
"","html-keyboard-response","119","287506","0.0-4.0-10.0-3.0-0.0","1435","<div><div style=""""><a style=""white-space:pre-wrap;""> for i in [1, 2]:
   a /= 3
   a *= 2</a><a style=""""></a></div></div>","8","8","1","71","for i in [1, 2]:
   a /= 3
   a *= 2","8","3"
"","html-keyboard-response","120","288360","0.0-4.0-10.0-4.0-0.0","340","<div><div style=""""><a style=""white-space:pre-wrap;""> for i in [1, 2]:
   a /= 3
   a *= 2</a><a style=""""></a></div></div>","backspace","","1","","","backspace",""
"","html-keyboard-response","121","291069","0.0-4.0-11.0-0.0-0.0","2202","<div><div style=""""><a style=""white-space:pre-wrap;""> for i in [1, 2, 3]:
   a += 4</a><a style=""""></a></div></div>","12","12","1","72","for i in [1, 2, 3]:
   a += 4","12","0"
"","html-keyboard-response","122","294164","0.0-4.0-11.0-1.0-0.0","2580","<div><div style=""""><a style=""white-space:pre-wrap;""> for i in [1, 2, 3]:
   a += 4</a><a style=""""></a></div></div>","16","16","1","72","for i in [1, 2, 3]:
   a += 4","16","1"
"","html-keyboard-response","123","295038","0.0-4.0-11.0-2.0-0.0","357","<div><div style=""""><a style=""white-space:pre-wrap;""> for i in [1, 2, 3]:
   a += 4</a><a style=""""></a></div></div>","20","20","1","72","for i in [1, 2, 3]:
   a += 4","20","2"
"","html-keyboard-response","124","295913","0.0-4.0-11.0-3.0-0.0","367","<div><div style=""""><a style=""white-space:pre-wrap;""> for i in [1, 2, 3]:
   a += 4</a><a style=""""></a></div></div>","backspace","","1","","","backspace",""
"","html-keyboard-response","125","298088","0.0-5.0-1.0","1663","<p style=""font-size: 25px;"">Please press space to start the next program<br>>>>>>></p>"," ","","","","","",""
"","html-keyboard-response","126","299456","0.0-5.0-2.0","1367","<div><div style="" font-size:25px; color:green;""><a style=""white-space:pre-wrap;""> a = 8</a><a style=""""></a></div></div>","","null","","37","a = 8","",""
"","html-keyboard-response","127","302686","0.0-5.0-4.0-0.0-0.0","2718","<div><div style=""""><a style=""white-space:pre-wrap;""> for i in [1, 2, 3]:
   a -= 2
   a += 6</a><a style=""""></a></div></div>","6","6","1","38","for i in [1, 2, 3]:
   a -= 2
   a += 6","6","0"
"","html-keyboard-response","128","304749","0.0-5.0-4.0-1.0-0.0","1562","<div><div style=""""><a style=""white-space:pre-wrap;""> for i in [1, 2, 3]:
   a -= 2
   a += 6</a><a style=""""></a></div></div>","12","12","1","38","for i in [1, 2, 3]:
   a -= 2
   a += 6","12","1"
"","html-keyboard-response","129","307310","0.0-5.0-4.0-2.0-0.0","2058","<div><div style=""""><a style=""white-space:pre-wrap;""> for i in [1, 2, 3]:
   a -= 2
   a += 6</a><a style=""""></a></div></div>","10","10","1","38","for i in [1, 2, 3]:
   a -= 2
   a += 6","10","2"
"","html-keyboard-response","130","309655","0.0-5.0-4.0-3.0-0.0","1835","<div><div style=""""><a style=""white-space:pre-wrap;""> for i in [1, 2, 3]:
   a -= 2
   a += 6</a><a style=""""></a></div></div>","16","16","1","38","for i in [1, 2, 3]:
   a -= 2
   a += 6","16","3"
"","html-keyboard-response","131","312524","0.0-5.0-4.0-4.0-0.0","2353","<div><div style=""""><a style=""white-space:pre-wrap;""> for i in [1, 2, 3]:
   a -= 2
   a += 6</a><a style=""""></a></div></div>","14","14","1","38","for i in [1, 2, 3]:
   a -= 2
   a += 6","14","4"
"","html-keyboard-response","132","314017","0.0-5.0-4.0-5.0-0.0","982","<div><div style=""""><a style=""white-space:pre-wrap;""> for i in [1, 2, 3]:
   a -= 2
   a += 6</a><a style=""""></a></div></div>","20","20","1","38","for i in [1, 2, 3]:
   a -= 2
   a += 6","20","5"
"","html-keyboard-response","133","314918","0.0-5.0-4.0-6.0-0.0","390","<div><div style=""""><a style=""white-space:pre-wrap;""> for i in [1, 2, 3]:
   a -= 2
   a += 6</a><a style=""""></a></div></div>","backspace","","1","","","backspace",""
"","html-keyboard-response","134","319229","0.0-5.0-5.0-0.0-0.0","3805","<div><div style=""""><a style=""white-space:pre-wrap;""> while a >= 8:
   a /= 2</a><a style=""""></a></div></div>","10","10","1","39","while a >= 8:
   a /= 2","10","0"
"","html-keyboard-response","135","320719","0.0-5.0-5.0-1.0-0.0","971","<div><div style=""""><a style=""white-space:pre-wrap;""> while a >= 8:
   a /= 2</a><a style=""""></a></div></div>","5","5","1","39","while a >= 8:
   a /= 2","5","1"
"","html-keyboard-response","136","321543","0.0-5.0-5.0-2.0-0.0","318","<div><div style=""""><a style=""white-space:pre-wrap;""> while a >= 8:
   a /= 2</a><a style=""""></a></div></div>","backspace","","1","","","backspace",""
"","html-keyboard-response","137","327373","0.0-5.0-6.0-0.0-0.0","5318","<div><div style=""""><a style=""white-space:pre-wrap;""> while a <= 15:
   a = round_up(a*1.5)</a><a style=""""></a></div></div>","8","8","1","40","while a <= 15:
   a = round_up(a*1.5)","8","0"
"","html-keyboard-response","138","329719","0.0-5.0-6.0-1.0-0.0","1829","<div><div style=""""><a style=""white-space:pre-wrap;""> while a <= 15:
   a = round_up(a*1.5)</a><a style=""""></a></div></div>","12","12","1","40","while a <= 15:
   a = round_up(a*1.5)","12","1"
"","html-keyboard-response","139","332269","0.0-5.0-6.0-2.0-0.0","2042","<div><div style=""""><a style=""white-space:pre-wrap;""> while a <= 15:
   a = round_up(a*1.5)</a><a style=""""></a></div></div>","18","18","1","40","while a <= 15:
   a = round_up(a*1.5)","18","2"
"","html-keyboard-response","140","333060","0.0-5.0-6.0-3.0-0.0","276","<div><div style=""""><a style=""white-space:pre-wrap;""> while a <= 15:
   a = round_up(a*1.5)</a><a style=""""></a></div></div>","backspace","","1","","","backspace",""
"","html-keyboard-response","141","337596","0.0-5.0-7.0-0.0-0.0","4031","<div><div style=""""><a style=""white-space:pre-wrap;""> while a >= 4:
   a = average(a,2)</a><a style=""""></a></div></div>","10","10","1","41","while a >= 4:
   a = average(a,2)","10","0"
"","html-keyboard-response","142","340997","0.0-5.0-7.0-1.0-0.0","2886","<div><div style=""""><a style=""white-space:pre-wrap;""> while a >= 4:
   a = average(a,2)</a><a style=""""></a></div></div>","6","6","1","41","while a >= 4:
   a = average(a,2)","6","1"
"","html-keyboard-response","143","343384","0.0-5.0-7.0-2.0-0.0","1879","<div><div style=""""><a style=""white-space:pre-wrap;""> while a >= 4:
   a = average(a,2)</a><a style=""""></a></div></div>","4","4","1","41","while a >= 4:
   a = average(a,2)","4","2"
"","html-keyboard-response","144","345398","0.0-5.0-7.0-3.0-0.0","1507","<div><div style=""""><a style=""white-space:pre-wrap;""> while a >= 4:
   a = average(a,2)</a><a style=""""></a></div></div>","3","3","1","41","while a >= 4:
   a = average(a,2)","3","3"
"","html-keyboard-response","145","346157","0.0-5.0-7.0-4.0-0.0","243","<div><div style=""""><a style=""white-space:pre-wrap;""> while a >= 4:
   a = average(a,2)</a><a style=""""></a></div></div>","backspace","","1","","","backspace",""
"","html-keyboard-response","146","348193","0.0-5.0-8.0-0.0-0.0","1528","<div><div style=""""><a style=""white-space:pre-wrap;""> for i in [1, 2]:
   a += 7
   a /= 2</a><a style=""""></a></div></div>","10","10","1","42","for i in [1, 2]:
   a += 7
   a /= 2","10","0"
"","html-keyboard-response","147","350068","0.0-5.0-8.0-1.0-0.0","1361","<div><div style=""""><a style=""white-space:pre-wrap;""> for i in [1, 2]:
   a += 7
   a /= 2</a><a style=""""></a></div></div>","5","5","1","42","for i in [1, 2]:
   a += 7
   a /= 2","5","1"
"","html-keyboard-response","148","352562","0.0-5.0-8.0-2.0-0.0","1991","<div><div style=""""><a style=""white-space:pre-wrap;""> for i in [1, 2]:
   a += 7
   a /= 2</a><a style=""""></a></div></div>","13","12","0","42","for i in [1, 2]:
   a += 7
   a /= 2","12","2"
"","html-keyboard-response","150","357253","0.0-5.0-8.0-3.0-0.0","671","<div><div style=""""><a style=""white-space:pre-wrap;""> for i in [1, 2]:
   a += 7
   a /= 2</a><a style=""""></a></div></div>","6","6","1","42","for i in [1, 2]:
   a += 7
   a /= 2","6","3"
"","html-keyboard-response","151","359573","0.0-5.0-8.0-4.0-0.0","1807","<div><div style=""""><a style=""white-space:pre-wrap;""> for i in [1, 2]:
   a += 7
   a /= 2</a><a style=""""></a></div></div>","backspace","","1","","","backspace",""
"","html-keyboard-response","152","362245","0.0-5.0-9.0-0.0-0.0","2169","<div><div style=""""><a style=""white-space:pre-wrap;""> for i in [1, 2, 3, 4]:
   a += 3</a><a style=""""></a></div></div>","9","9","1","43","for i in [1, 2, 3, 4]:
   a += 3","9","0"
"","html-keyboard-response","153","363175","0.0-5.0-9.0-1.0-0.0","421","<div><div style=""""><a style=""white-space:pre-wrap;""> for i in [1, 2, 3, 4]:
   a += 3</a><a style=""""></a></div></div>","12","12","1","43","for i in [1, 2, 3, 4]:
   a += 3","12","1"
"","html-keyboard-response","154","364083","0.0-5.0-9.0-2.0-0.0","403","<div><div style=""""><a style=""white-space:pre-wrap;""> for i in [1, 2, 3, 4]:
   a += 3</a><a style=""""></a></div></div>","15","15","1","43","for i in [1, 2, 3, 4]:
   a += 3","15","2"
"","html-keyboard-response","155","365711","0.0-5.0-9.0-3.0-0.0","1118","<div><div style=""""><a style=""white-space:pre-wrap;""> for i in [1, 2, 3, 4]:
   a += 3</a><a style=""""></a></div></div>","18","18","1","43","for i in [1, 2, 3, 4]:
   a += 3","18","3"
"","html-keyboard-response","156","366624","0.0-5.0-9.0-4.0-0.0","410","<div><div style=""""><a style=""white-space:pre-wrap;""> for i in [1, 2, 3, 4]:
   a += 3</a><a style=""""></a></div></div>","backspace","","1","","","backspace",""
"","html-keyboard-response","157","371069","0.0-5.0-10.0-0.0-0.0","3930","<div><div style=""""><a style=""white-space:pre-wrap;""> for i in [1, 2]:
   a /= 3
   a *= 2</a><a style=""""></a></div></div>","6","6","1","44","for i in [1, 2]:
   a /= 3
   a *= 2","6","0"
"","html-keyboard-response","158","372573","0.0-5.0-10.0-1.0-0.0","995","<div><div style=""""><a style=""white-space:pre-wrap;""> for i in [1, 2]:
   a /= 3
   a *= 2</a><a style=""""></a></div></div>","12","12","1","44","for i in [1, 2]:
   a /= 3
   a *= 2","12","1"
"","html-keyboard-response","159","374488","0.0-5.0-10.0-2.0-0.0","1398","<div><div style=""""><a style=""white-space:pre-wrap;""> for i in [1, 2]:
   a /= 3
   a *= 2</a><a style=""""></a></div></div>","4","4","1","44","for i in [1, 2]:
   a /= 3
   a *= 2","4","2"
"","html-keyboard-response","160","376892","0.0-5.0-10.0-3.0-0.0","1898","<div><div style=""""><a style=""white-space:pre-wrap;""> for i in [1, 2]:
   a /= 3
   a *= 2</a><a style=""""></a></div></div>","8","8","1","44","for i in [1, 2]:
   a /= 3
   a *= 2","8","3"
"","html-keyboard-response","161","377674","0.0-5.0-10.0-4.0-0.0","271","<div><div style=""""><a style=""white-space:pre-wrap;""> for i in [1, 2]:
   a /= 3
   a *= 2</a><a style=""""></a></div></div>","backspace","","1","","","backspace",""
"","html-keyboard-response","162","380652","0.0-5.0-11.0-0.0-0.0","2472","<div><div style=""""><a style=""white-space:pre-wrap;""> while a >= 3:
   a *= 2
   a -= 9</a><a style=""""></a></div></div>","16","16","1","45","while a >= 3:
   a *= 2
   a -= 9","16","0"
"","html-keyboard-response","163","385710","0.0-5.0-11.0-1.0-0.0","4541","<div><div style=""""><a style=""white-space:pre-wrap;""> while a >= 3:
   a *= 2
   a -= 9</a><a style=""""></a></div></div>","7","7","1","45","while a >= 3:
   a *= 2
   a -= 9","7","1"
"","html-keyboard-response","164","387312","0.0-5.0-11.0-2.0-0.0","1085","<div><div style=""""><a style=""white-space:pre-wrap;""> while a >= 3:
   a *= 2
   a -= 9</a><a style=""""></a></div></div>","14","14","1","45","while a >= 3:
   a *= 2
   a -= 9","14","2"
"","html-keyboard-response","165","388492","0.0-5.0-11.0-3.0-0.0","664","<div><div style=""""><a style=""white-space:pre-wrap;""> while a >= 3:
   a *= 2
   a -= 9</a><a style=""""></a></div></div>","5","5","1","45","while a >= 3:
   a *= 2
   a -= 9","5","3"
"","html-keyboard-response","166","389286","0.0-5.0-11.0-4.0-0.0","291","<div><div style=""""><a style=""white-space:pre-wrap;""> while a >= 3:
   a *= 2
   a -= 9</a><a style=""""></a></div></div>","backspace","10","0","45","while a >= 3:
   a *= 2
   a -= 9","10","4"
"","html-keyboard-response","168","395507","0.0-5.0-11.0-5.0-0.0","2207","<div><div style=""""><a style=""white-space:pre-wrap;""> while a >= 3:
   a *= 2
   a -= 9</a><a style=""""></a></div></div>","1","1","1","45","while a >= 3:
   a *= 2
   a -= 9","1","5"
"","html-keyboard-response","169","396783","0.0-5.0-11.0-6.0-0.0","764","<div><div style=""""><a style=""white-space:pre-wrap;""> while a >= 3:
   a *= 2
   a -= 9</a><a style=""""></a></div></div>","backspace","","1","","","backspace",""
"","html-keyboard-response","170","420316","0.0-6.0-0.0-0.0","23020","<p style=""position:absolute; top:30%; font-size:25px; color:green;"" >Take a short break now</p>"," ","","","","","",""
"","html-keyboard-response","171","421308","0.0-6.0-1.0","991","<p style=""font-size: 25px;"">Please press space to start the next program<br>>>>>>></p>"," ","","","","","",""
"","html-keyboard-response","172","422150","0.0-6.0-2.0","840","<div><div style="" font-size:25px; color:green;""><a style=""white-space:pre-wrap;""> a = 9</a><a style=""""></a></div></div>","","null","","91","a = 9","",""
"","html-keyboard-response","173","424360","0.0-6.0-4.0-0.0-0.0","1702","<div><div style=""""><a style=""white-space:pre-wrap;""> while a >= 2:
   a /= 3</a><a style=""""></a></div></div>","3","3","1","92","while a >= 2:
   a /= 3","3","0"
"","html-keyboard-response","174","425281","0.0-6.0-4.0-1.0-0.0","412","<div><div style=""""><a style=""white-space:pre-wrap;""> while a >= 2:
   a /= 3</a><a style=""""></a></div></div>","1","1","1","92","while a >= 2:
   a /= 3","1","1"
"","html-keyboard-response","175","425998","0.0-6.0-4.0-2.0-0.0","215","<div><div style=""""><a style=""white-space:pre-wrap;""> while a >= 2:
   a /= 3</a><a style=""""></a></div></div>","backspace","","1","","","backspace",""
"","html-keyboard-response","176","428032","0.0-6.0-5.0-0.0-0.0","1523","<div><div style=""""><a style=""white-space:pre-wrap;""> for i in [1, 2, 3]:
   a += 6</a><a style=""""></a></div></div>","7","7","1","93","for i in [1, 2, 3]:
   a += 6","7","0"
"","html-keyboard-response","177","430523","0.0-6.0-5.0-1.0-0.0","1976","<div><div style=""""><a style=""white-space:pre-wrap;""> for i in [1, 2, 3]:
   a += 6</a><a style=""""></a></div></div>","13","13","1","93","for i in [1, 2, 3]:
   a += 6","13","1"
"","html-keyboard-response","178","432813","0.0-6.0-5.0-2.0-0.0","1784","<div><div style=""""><a style=""white-space:pre-wrap;""> for i in [1, 2, 3]:
   a += 6</a><a style=""""></a></div></div>","19","19","1","93","for i in [1, 2, 3]:
   a += 6","19","2"
"","html-keyboard-response","179","433574","0.0-6.0-5.0-3.0-0.0","254","<div><div style=""""><a style=""white-space:pre-wrap;""> for i in [1, 2, 3]:
   a += 6</a><a style=""""></a></div></div>","backspace","","1","","","backspace",""
"","html-keyboard-response","180","436767","0.0-6.0-6.0-0.0-0.0","2677","<div><div style=""""><a style=""white-space:pre-wrap;""> for i in [1, 2]:
   a += 1
   a -= 8</a><a style=""""></a></div></div>","20","20","1","94","for i in [1, 2]:
   a += 1
   a -= 8","20","0"
"","html-keyboard-response","181","437739","0.0-6.0-6.0-1.0-0.0","467","<div><div style=""""><a style=""white-space:pre-wrap;""> for i in [1, 2]:
   a += 1
   a -= 8</a><a style=""""></a></div></div>","12","12","1","94","for i in [1, 2]:
   a += 1
   a -= 8","12","1"
"","html-keyboard-response","182","439717","0.0-6.0-6.0-2.0-0.0","1470","<div><div style=""""><a style=""white-space:pre-wrap;""> for i in [1, 2]:
   a += 1
   a -= 8</a><a style=""""></a></div></div>","13","13","1","94","for i in [1, 2]:
   a += 1
   a -= 8","13","2"
"","html-keyboard-response","183","443097","0.0-6.0-6.0-3.0-0.0","2878","<div><div style=""""><a style=""white-space:pre-wrap;""> for i in [1, 2]:
   a += 1
   a -= 8</a><a style=""""></a></div></div>","5","5","1","94","for i in [1, 2]:
   a += 1
   a -= 8","5","3"
"","html-keyboard-response","184","444414","0.0-6.0-6.0-4.0-0.0","800","<div><div style=""""><a style=""white-space:pre-wrap;""> for i in [1, 2]:
   a += 1
   a -= 8</a><a style=""""></a></div></div>","backspace","","1","","","backspace",""
"","html-keyboard-response","185","446567","0.0-6.0-7.0-0.0-0.0","1639","<div><div style=""""><a style=""white-space:pre-wrap;""> while a <= 6:
   a *= 3
   a -= 9</a><a style=""""></a></div></div>","15","15","1","95","while a <= 6:
   a *= 3
   a -= 9","15","0"
"","html-keyboard-response","186","448086","0.0-6.0-7.0-1.0-0.0","1008","<div><div style=""""><a style=""white-space:pre-wrap;""> while a <= 6:
   a *= 3
   a -= 9</a><a style=""""></a></div></div>","6","6","1","95","while a <= 6:
   a *= 3
   a -= 9","6","1"
"","html-keyboard-response","187","451324","0.0-6.0-7.0-2.0-0.0","2731","<div><div style=""""><a style=""white-space:pre-wrap;""> while a <= 6:
   a *= 3
   a -= 9</a><a style=""""></a></div></div>","18","18","1","95","while a <= 6:
   a *= 3
   a -= 9","18","2"
"","html-keyboard-response","188","454097","0.0-6.0-7.0-3.0-0.0","2264","<div><div style=""""><a style=""white-space:pre-wrap;""> while a <= 6:
   a *= 3
   a -= 9</a><a style=""""></a></div></div>","9","9","1","95","while a <= 6:
   a *= 3
   a -= 9","9","3"
"","html-keyboard-response","189","455049","0.0-6.0-7.0-4.0-0.0","445","<div><div style=""""><a style=""white-space:pre-wrap;""> while a <= 6:
   a *= 3
   a -= 9</a><a style=""""></a></div></div>","backspace","","1","","","backspace",""
"","html-keyboard-response","190","459584","0.0-6.0-8.0-0.0-0.0","4021","<div><div style=""""><a style=""white-space:pre-wrap;""> while a >= 3:
   a = average(a, 1)</a><a style=""""></a></div></div>","5","5","1","96","while a >= 3:
   a = average(a, 1)","5","0"
"","html-keyboard-response","191","462406","0.0-6.0-8.0-1.0-0.0","2309","<div><div style=""""><a style=""white-space:pre-wrap;""> while a >= 3:
   a = average(a, 1)</a><a style=""""></a></div></div>","3","3","1","96","while a >= 3:
   a = average(a, 1)","3","1"
"","html-keyboard-response","192","464809","0.0-6.0-8.0-2.0-0.0","1886","<div><div style=""""><a style=""white-space:pre-wrap;""> while a >= 3:
   a = average(a, 1)</a><a style=""""></a></div></div>","2","2","1","96","while a >= 3:
   a = average(a, 1)","2","2"
"","html-keyboard-response","193","465433","0.0-6.0-8.0-3.0-0.0","120","<div><div style=""""><a style=""white-space:pre-wrap;""> while a >= 3:
   a = average(a, 1)</a><a style=""""></a></div></div>","backspace","","1","","","backspace",""
"","html-keyboard-response","194","468502","0.0-6.0-9.0-0.0-0.0","2561","<div><div style=""""><a style=""white-space:pre-wrap;""> while a <= 9:
   a -= 1
   a *= 5</a><a style=""""></a></div></div>","1","1","1","97","while a <= 9:
   a -= 1
   a *= 5","1","0"
"","html-keyboard-response","195","470052","0.0-6.0-9.0-1.0-0.0","1043","<div><div style=""""><a style=""white-space:pre-wrap;""> while a <= 9:
   a -= 1
   a *= 5</a><a style=""""></a></div></div>","5","5","1","97","while a <= 9:
   a -= 1
   a *= 5","5","1"
"","html-keyboard-response","196","471674","0.0-6.0-9.0-2.0-0.0","1111","<div><div style=""""><a style=""white-space:pre-wrap;""> while a <= 9:
   a -= 1
   a *= 5</a><a style=""""></a></div></div>","4","4","1","97","while a <= 9:
   a -= 1
   a *= 5","4","2"
"","html-keyboard-response","197","472513","0.0-6.0-9.0-3.0-0.0","327","<div><div style=""""><a style=""white-space:pre-wrap;""> while a <= 9:
   a -= 1
   a *= 5</a><a style=""""></a></div></div>","8","20","0","97","while a <= 9:
   a -= 1
   a *= 5","20","3"
"","html-keyboard-response","199","477298","0.0-6.0-9.0-4.0-0.0","767","<div><div style=""""><a style=""white-space:pre-wrap;""> while a <= 9:
   a -= 1
   a *= 5</a><a style=""""></a></div></div>","backspace","","1","","","backspace",""
"","html-keyboard-response","200","479411","0.0-6.0-10.0-0.0-0.0","1603","<div><div style=""""><a style=""white-space:pre-wrap;""> for i in [1, 2, 3]:
   a -= 3</a><a style=""""></a></div></div>","17","17","1","98","for i in [1, 2, 3]:
   a -= 3","17","0"
"","html-keyboard-response","201","480876","0.0-6.0-10.0-1.0-0.0","959","<div><div style=""""><a style=""white-space:pre-wrap;""> for i in [1, 2, 3]:
   a -= 3</a><a style=""""></a></div></div>","14","14","1","98","for i in [1, 2, 3]:
   a -= 3","14","1"
"","html-keyboard-response","202","482526","0.0-6.0-10.0-2.0-0.0","1141","<div><div style=""""><a style=""white-space:pre-wrap;""> for i in [1, 2, 3]:
   a -= 3</a><a style=""""></a></div></div>","11","11","1","98","for i in [1, 2, 3]:
   a -= 3","11","2"
"","html-keyboard-response","203","483192","0.0-6.0-10.0-3.0-0.0","156","<div><div style=""""><a style=""white-space:pre-wrap;""> for i in [1, 2, 3]:
   a -= 3</a><a style=""""></a></div></div>","backspace","","1","","","backspace",""
"","html-keyboard-response","204","485752","0.0-6.0-11.0-0.0-0.0","2053","<div><div style=""""><a style=""white-space:pre-wrap;""> for i in [1, 2]:
   a -= 5</a><a style=""""></a></div></div>","6","6","1","99","for i in [1, 2]:
   a -= 5","6","0"
"","html-keyboard-response","205","486699","0.0-6.0-11.0-1.0-0.0","441","<div><div style=""""><a style=""white-space:pre-wrap;""> for i in [1, 2]:
   a -= 5</a><a style=""""></a></div></div>","1","1","1","99","for i in [1, 2]:
   a -= 5","1","1"
"","html-keyboard-response","206","487718","0.0-6.0-11.0-2.0-0.0","513","<div><div style=""""><a style=""white-space:pre-wrap;""> for i in [1, 2]:
   a -= 5</a><a style=""""></a></div></div>","backspace","","1","","","backspace",""
"","html-keyboard-response","207","489447","0.0-7.0-1.0","1213","<p style=""font-size: 25px;"">Please press space to start the next program<br>>>>>>></p>"," ","","","","","",""
"","html-keyboard-response","208","490078","0.0-7.0-2.0","630","<div><div style="" font-size:25px; color:green;""><a style=""white-space:pre-wrap;""> a = 16</a><a style=""""></a></div></div>","","null","","82","a = 16","",""
"","html-keyboard-response","209","494716","0.0-7.0-4.0-0.0-0.0","4126","<div><div style=""""><a style=""white-space:pre-wrap;""> while a >= 6:
   a /= 2</a><a style=""""></a></div></div>","8","8","1","83","while a >= 6:
   a /= 2","8","0"
"","html-keyboard-response","210","496619","0.0-7.0-4.0-1.0-0.0","1394","<div><div style=""""><a style=""white-space:pre-wrap;""> while a >= 6:
   a /= 2</a><a style=""""></a></div></div>","4","4","1","83","while a >= 6:
   a /= 2","4","1"
"","html-keyboard-response","211","497425","0.0-7.0-4.0-2.0-0.0","290","<div><div style=""""><a style=""white-space:pre-wrap;""> while a >= 6:
   a /= 2</a><a style=""""></a></div></div>","backspace","","1","","","backspace",""
"","html-keyboard-response","212","502502","0.0-7.0-5.0-0.0-0.0","4563","<div><div style=""""><a style=""white-space:pre-wrap;""> while a <= 11:
   a = round_up(a*1.5)</a><a style=""""></a></div></div>","6","6","1","84","while a <= 11:
   a = round_up(a*1.5)","6","0"
"","html-keyboard-response","213","504731","0.0-7.0-5.0-1.0-0.0","1724","<div><div style=""""><a style=""white-space:pre-wrap;""> while a <= 11:
   a = round_up(a*1.5)</a><a style=""""></a></div></div>","9","9","1","84","while a <= 11:
   a = round_up(a*1.5)","9","1"
"","html-keyboard-response","214","508522","0.0-7.0-5.0-2.0-0.0","3288","<div><div style=""""><a style=""white-space:pre-wrap;""> while a <= 11:
   a = round_up(a*1.5)</a><a style=""""></a></div></div>","14","14","1","84","while a <= 11:
   a = round_up(a*1.5)","14","2"
"","html-keyboard-response","215","509277","0.0-7.0-5.0-3.0-0.0","244","<div><div style=""""><a style=""white-space:pre-wrap;""> while a <= 11:
   a = round_up(a*1.5)</a><a style=""""></a></div></div>","backspace","","1","","","backspace",""
"","html-keyboard-response","216","511744","0.0-7.0-6.0-0.0-0.0","1955","<div><div style=""""><a style=""white-space:pre-wrap;""> for i in [1, 2]:
   a += 5
   a -= 6</a><a style=""""></a></div></div>","19","19","1","85","for i in [1, 2]:
   a += 5
   a -= 6","19","0"
"","html-keyboard-response","217","513659","0.0-7.0-6.0-1.0-0.0","1409","<div><div style=""""><a style=""white-space:pre-wrap;""> for i in [1, 2]:
   a += 5
   a -= 6</a><a style=""""></a></div></div>","13","13","1","85","for i in [1, 2]:
   a += 5
   a -= 6","13","1"
"","html-keyboard-response","218","514387","0.0-7.0-6.0-2.0-0.0","225","<div><div style=""""><a style=""white-space:pre-wrap;""> for i in [1, 2]:
   a += 5
   a -= 6</a><a style=""""></a></div></div>","18","18","1","85","for i in [1, 2]:
   a += 5
   a -= 6","18","2"
"","html-keyboard-response","219","515187","0.0-7.0-6.0-3.0-0.0","287","<div><div style=""""><a style=""white-space:pre-wrap;""> for i in [1, 2]:
   a += 5
   a -= 6</a><a style=""""></a></div></div>","12","12","1","85","for i in [1, 2]:
   a += 5
   a -= 6","12","3"
"","html-keyboard-response","220","516195","0.0-7.0-6.0-4.0-0.0","494","<div><div style=""""><a style=""white-space:pre-wrap;""> for i in [1, 2]:
   a += 5
   a -= 6</a><a style=""""></a></div></div>","backspace","","1","","","backspace",""
"","html-keyboard-response","221","521039","0.0-7.0-7.0-0.0-0.0","4340","<div><div style=""""><a style=""white-space:pre-wrap;""> for i in [1, 2, 3]:
   a = average(a,4)</a><a style=""""></a></div></div>","16","8","0","86","for i in [1, 2, 3]:
   a = average(a,4)","8","0"
"","html-keyboard-response","223","525551","0.0-7.0-7.0-1.0-0.0","496","<div><div style=""""><a style=""white-space:pre-wrap;""> for i in [1, 2, 3]:
   a = average(a,4)</a><a style=""""></a></div></div>","6","6","1","86","for i in [1, 2, 3]:
   a = average(a,4)","6","1"
"","html-keyboard-response","224","531261","0.0-7.0-7.0-2.0-0.0","5197","<div><div style=""""><a style=""white-space:pre-wrap;""> for i in [1, 2, 3]:
   a = average(a,4)</a><a style=""""></a></div></div>","5","5","1","86","for i in [1, 2, 3]:
   a = average(a,4)","5","2"
"","html-keyboard-response","225","532093","0.0-7.0-7.0-3.0-0.0","322","<div><div style=""""><a style=""white-space:pre-wrap;""> for i in [1, 2, 3]:
   a = average(a,4)</a><a style=""""></a></div></div>","backspace","","1","","","backspace",""
"","html-keyboard-response","226","534251","0.0-7.0-8.0-0.0-0.0","1644","<div><div style=""""><a style=""white-space:pre-wrap;""> while a >= 3:
   a *= 3
   a -= 11</a><a style=""""></a></div></div>","15","15","1","87","while a >= 3:
   a *= 3
   a -= 11","15","0"
"","html-keyboard-response","227","536603","0.0-7.0-8.0-1.0-0.0","1849","<div><div style=""""><a style=""white-space:pre-wrap;""> while a >= 3:
   a *= 3
   a -= 11</a><a style=""""></a></div></div>","4","4","1","87","while a >= 3:
   a *= 3
   a -= 11","4","1"
"","html-keyboard-response","228","540047","0.0-7.0-8.0-2.0-0.0","2933","<div><div style=""""><a style=""white-space:pre-wrap;""> while a >= 3:
   a *= 3
   a -= 11</a><a style=""""></a></div></div>","12","12","1","87","while a >= 3:
   a *= 3
   a -= 11","12","2"
"","html-keyboard-response","229","541005","0.0-7.0-8.0-3.0-0.0","445","<div><div style=""""><a style=""white-space:pre-wrap;""> while a >= 3:
   a *= 3
   a -= 11</a><a style=""""></a></div></div>","1","1","1","87","while a >= 3:
   a *= 3
   a -= 11","1","3"
"","html-keyboard-response","230","541800","0.0-7.0-8.0-4.0-0.0","285","<div><div style=""""><a style=""white-space:pre-wrap;""> while a >= 3:
   a *= 3
   a -= 11</a><a style=""""></a></div></div>","backspace","","1","","","backspace",""
"","html-keyboard-response","231","543570","0.0-7.0-9.0-0.0-0.0","1265","<div><div style=""""><a style=""white-space:pre-wrap;""> for i in [1, 2]:
   a *= 6
   a /= 2</a><a style=""""></a></div></div>","6","6","1","88","for i in [1, 2]:
   a *= 6
   a /= 2","6","0"
"","html-keyboard-response","232","545948","0.0-7.0-9.0-1.0-0.0","1865","<div><div style=""""><a style=""white-space:pre-wrap;""> for i in [1, 2]:
   a *= 6
   a /= 2</a><a style=""""></a></div></div>","3","3","1","88","for i in [1, 2]:
   a *= 6
   a /= 2","3","1"
"","html-keyboard-response","233","547710","0.0-7.0-9.0-2.0-0.0","1254","<div><div style=""""><a style=""white-space:pre-wrap;""> for i in [1, 2]:
   a *= 6
   a /= 2</a><a style=""""></a></div></div>","18","18","1","88","for i in [1, 2]:
   a *= 6
   a /= 2","18","2"
"","html-keyboard-response","234","550203","0.0-7.0-9.0-3.0-0.0","1982","<div><div style=""""><a style=""white-space:pre-wrap;""> for i in [1, 2]:
   a *= 6
   a /= 2</a><a style=""""></a></div></div>","9","9","1","88","for i in [1, 2]:
   a *= 6
   a /= 2","9","3"
"","html-keyboard-response","235","551179","0.0-7.0-9.0-4.0-0.0","472","<div><div style=""""><a style=""white-space:pre-wrap;""> for i in [1, 2]:
   a *= 6
   a /= 2</a><a style=""""></a></div></div>","backspace","","1","","","backspace",""
"","html-keyboard-response","236","553312","0.0-7.0-10.0-0.0-0.0","1625","<div><div style=""""><a style=""white-space:pre-wrap;""> for i in [1, 2]:
   a -= 2</a><a style=""""></a></div></div>","7","7","1","89","for i in [1, 2]:
   a -= 2","7","0"
"","html-keyboard-response","237","554484","0.0-7.0-10.0-1.0-0.0","663","<div><div style=""""><a style=""white-space:pre-wrap;""> for i in [1, 2]:
   a -= 2</a><a style=""""></a></div></div>","5","5","1","89","for i in [1, 2]:
   a -= 2","5","1"
"","html-keyboard-response","238","555153","0.0-7.0-10.0-2.0-0.0","154","<div><div style=""""><a style=""white-space:pre-wrap;""> for i in [1, 2]:
   a -= 2</a><a style=""""></a></div></div>","backspace","","1","","","backspace",""
"","html-keyboard-response","239","558543","0.0-7.0-11.0-0.0-0.0","2879","<div><div style=""""><a style=""white-space:pre-wrap;""> while a <= 7:
   a += 9
   a /= 2</a><a style=""""></a></div></div>","14","14","1","90","while a <= 7:
   a += 9
   a /= 2","14","0"
"","html-keyboard-response","240","559622","0.0-7.0-11.0-1.0-0.0","572","<div><div style=""""><a style=""white-space:pre-wrap;""> while a <= 7:
   a += 9
   a /= 2</a><a style=""""></a></div></div>","7","7","1","90","while a <= 7:
   a += 9
   a /= 2","7","1"
"","html-keyboard-response","241","560863","0.0-7.0-11.0-2.0-0.0","728","<div><div style=""""><a style=""white-space:pre-wrap;""> while a <= 7:
   a += 9
   a /= 2</a><a style=""""></a></div></div>","16","16","1","90","while a <= 7:
   a += 9
   a /= 2","16","2"
"","html-keyboard-response","242","562593","0.0-7.0-11.0-3.0-0.0","1224","<div><div style=""""><a style=""white-space:pre-wrap;""> while a <= 7:
   a += 9
   a /= 2</a><a style=""""></a></div></div>","8","8","1","90","while a <= 7:
   a += 9
   a /= 2","8","3"
"","html-keyboard-response","243","564054","0.0-7.0-11.0-4.0-0.0","948","<div><div style=""""><a style=""white-space:pre-wrap;""> while a <= 7:
   a += 9
   a /= 2</a><a style=""""></a></div></div>","backspace","","1","","","backspace",""
"","html-keyboard-response","244","565787","0.0-8.0-1.0","1229","<p style=""font-size: 25px;"">Please press space to start the next program<br>>>>>>></p>"," ","","","","","",""
"","html-keyboard-response","245","566858","0.0-8.0-2.0","1070","<div><div style="" font-size:25px; color:green;""><a style=""white-space:pre-wrap;""> a = 8</a><a style=""""></a></div></div>","","null","","46","a = 8","",""
"","html-keyboard-response","246","569196","0.0-8.0-4.0-0.0-0.0","1834","<div><div style=""""><a style=""white-space:pre-wrap;""> while a <= 17:
   a -= 2
   a += 6</a><a style=""""></a></div></div>","6","6","1","47","while a <= 17:
   a -= 2
   a += 6","6","0"
"","html-keyboard-response","247","570592","0.0-8.0-4.0-1.0-0.0","884","<div><div style=""""><a style=""white-space:pre-wrap;""> while a <= 17:
   a -= 2
   a += 6</a><a style=""""></a></div></div>","12","12","1","47","while a <= 17:
   a -= 2
   a += 6","12","1"
"","html-keyboard-response","248","572909","0.0-8.0-4.0-2.0-0.0","1812","<div><div style=""""><a style=""white-space:pre-wrap;""> while a <= 17:
   a -= 2
   a += 6</a><a style=""""></a></div></div>","10","10","1","47","while a <= 17:
   a -= 2
   a += 6","10","2"
"","html-keyboard-response","249","574873","0.0-8.0-4.0-3.0-0.0","1454","<div><div style=""""><a style=""white-space:pre-wrap;""> while a <= 17:
   a -= 2
   a += 6</a><a style=""""></a></div></div>","16","16","1","47","while a <= 17:
   a -= 2
   a += 6","16","3"
"","html-keyboard-response","250","577101","0.0-8.0-4.0-4.0-0.0","1719","<div><div style=""""><a style=""white-space:pre-wrap;""> while a <= 17:
   a -= 2
   a += 6</a><a style=""""></a></div></div>","14","14","1","47","while a <= 17:
   a -= 2
   a += 6","14","4"
"","html-keyboard-response","251","579509","0.0-8.0-4.0-5.0-0.0","1899","<div><div style=""""><a style=""white-space:pre-wrap;""> while a <= 17:
   a -= 2
   a += 6</a><a style=""""></a></div></div>","20","20","1","47","while a <= 17:
   a -= 2
   a += 6","20","5"
"","html-keyboard-response","252","580332","0.0-8.0-4.0-6.0-0.0","318","<div><div style=""""><a style=""white-space:pre-wrap;""> while a <= 17:
   a -= 2
   a += 6</a><a style=""""></a></div></div>","backspace","","1","","","backspace",""
"","html-keyboard-response","253","584169","0.0-8.0-5.0-0.0-0.0","3331","<div><div style=""""><a style=""white-space:pre-wrap;""> while a >= 8:
   a /= 2</a><a style=""""></a></div></div>","10","10","1","48","while a >= 8:
   a /= 2","10","0"
"","html-keyboard-response","254","585295","0.0-8.0-5.0-1.0-0.0","614","<div><div style=""""><a style=""white-space:pre-wrap;""> while a >= 8:
   a /= 2</a><a style=""""></a></div></div>","5","5","1","48","while a >= 8:
   a /= 2","5","1"
"","html-keyboard-response","255","586074","0.0-8.0-5.0-2.0-0.0","277","<div><div style=""""><a style=""white-space:pre-wrap;""> while a >= 8:
   a /= 2</a><a style=""""></a></div></div>","backspace","","1","","","backspace",""
"","html-keyboard-response","256","592037","0.0-8.0-6.0-0.0-0.0","5444","<div><div style=""""><a style=""white-space:pre-wrap;""> for i in [1, 2, 3]:
   a = round_up(a*1.5)</a><a style=""""></a></div></div>","8","8","1","49","for i in [1, 2, 3]:
   a = round_up(a*1.5)","8","0"
"","html-keyboard-response","257","595847","0.0-8.0-6.0-1.0-0.0","3306","<div><div style=""""><a style=""white-space:pre-wrap;""> for i in [1, 2, 3]:
   a = round_up(a*1.5)</a><a style=""""></a></div></div>","12","12","1","49","for i in [1, 2, 3]:
   a = round_up(a*1.5)","12","1"
"","html-keyboard-response","258","598201","0.0-8.0-6.0-2.0-0.0","1851","<div><div style=""""><a style=""white-space:pre-wrap;""> for i in [1, 2, 3]:
   a = round_up(a*1.5)</a><a style=""""></a></div></div>","18","18","1","49","for i in [1, 2, 3]:
   a = round_up(a*1.5)","18","2"
"","html-keyboard-response","259","598920","0.0-8.0-6.0-3.0-0.0","203","<div><div style=""""><a style=""white-space:pre-wrap;""> for i in [1, 2, 3]:
   a = round_up(a*1.5)</a><a style=""""></a></div></div>","backspace","","1","","","backspace",""
"","html-keyboard-response","260","604178","0.0-8.0-7.0-0.0-0.0","4750","<div><div style=""""><a style=""white-space:pre-wrap;""> while a >= 4:
   a = average(a,2)</a><a style=""""></a></div></div>","10","10","1","50","while a >= 4:
   a = average(a,2)","10","0"
"","html-keyboard-response","261","607511","0.0-8.0-7.0-1.0-0.0","2829","<div><div style=""""><a style=""white-space:pre-wrap;""> while a >= 4:
   a = average(a,2)</a><a style=""""></a></div></div>","6","6","1","50","while a >= 4:
   a = average(a,2)","6","1"
"","html-keyboard-response","262","609890","0.0-8.0-7.0-2.0-0.0","1875","<div><div style=""""><a style=""white-space:pre-wrap;""> while a >= 4:
   a = average(a,2)</a><a style=""""></a></div></div>","4","4","1","50","while a >= 4:
   a = average(a,2)","4","2"
"","html-keyboard-response","263","612047","0.0-8.0-7.0-3.0-0.0","1647","<div><div style=""""><a style=""white-space:pre-wrap;""> while a >= 4:
   a = average(a,2)</a><a style=""""></a></div></div>","3","3","1","50","while a >= 4:
   a = average(a,2)","3","3"
"","html-keyboard-response","264","612720","0.0-8.0-7.0-4.0-0.0","158","<div><div style=""""><a style=""white-space:pre-wrap;""> while a >= 4:
   a = average(a,2)</a><a style=""""></a></div></div>","backspace","","1","","","backspace",""
"","html-keyboard-response","265","616526","0.0-8.0-8.0-0.0-0.0","3303","<div><div style=""""><a style=""white-space:pre-wrap;""> while a <= 5:
   a += 7
   a /= 2</a><a style=""""></a></div></div>","10","10","1","51","while a <= 5:
   a += 7
   a /= 2","10","0"
"","html-keyboard-response","266","617783","0.0-8.0-8.0-1.0-0.0","743","<div><div style=""""><a style=""white-space:pre-wrap;""> while a <= 5:
   a += 7
   a /= 2</a><a style=""""></a></div></div>","5","5","1","51","while a <= 5:
   a += 7
   a /= 2","5","1"
"","html-keyboard-response","267","623899","0.0-8.0-8.0-2.0-0.0","5607","<div><div style=""""><a style=""white-space:pre-wrap;""> while a <= 5:
   a += 7
   a /= 2</a><a style=""""></a></div></div>","12","12","1","51","while a <= 5:
   a += 7
   a /= 2","12","2"
"","html-keyboard-response","268","625457","0.0-8.0-8.0-3.0-0.0","1056","<div><div style=""""><a style=""white-space:pre-wrap;""> while a <= 5:
   a += 7
   a /= 2</a><a style=""""></a></div></div>","6","6","1","51","while a <= 5:
   a += 7
   a /= 2","6","3"
"","html-keyboard-response","269","626928","0.0-8.0-8.0-4.0-0.0","955","<div><div style=""""><a style=""white-space:pre-wrap;""> while a <= 5:
   a += 7
   a /= 2</a><a style=""""></a></div></div>","backspace","","1","","","backspace",""
"","html-keyboard-response","270","629483","0.0-8.0-9.0-0.0-0.0","2046","<div><div style=""""><a style=""white-space:pre-wrap;""> for i in [1, 2, 3, 4]:
   a += 3</a><a style=""""></a></div></div>","9","9","1","52","for i in [1, 2, 3, 4]:
   a += 3","9","0"
"","html-keyboard-response","271","630392","0.0-8.0-9.0-1.0-0.0","396","<div><div style=""""><a style=""white-space:pre-wrap;""> for i in [1, 2, 3, 4]:
   a += 3</a><a style=""""></a></div></div>","12","12","1","52","for i in [1, 2, 3, 4]:
   a += 3","12","1"
"","html-keyboard-response","272","631469","0.0-8.0-9.0-2.0-0.0","574","<div><div style=""""><a style=""white-space:pre-wrap;""> for i in [1, 2, 3, 4]:
   a += 3</a><a style=""""></a></div></div>","15","15","1","52","for i in [1, 2, 3, 4]:
   a += 3","15","2"
"","html-keyboard-response","273","632308","0.0-8.0-9.0-3.0-0.0","324","<div><div style=""""><a style=""white-space:pre-wrap;""> for i in [1, 2, 3, 4]:
   a += 3</a><a style=""""></a></div></div>","18","18","1","52","for i in [1, 2, 3, 4]:
   a += 3","18","3"
"","html-keyboard-response","274","633068","0.0-8.0-9.0-4.0-0.0","249","<div><div style=""""><a style=""white-space:pre-wrap;""> for i in [1, 2, 3, 4]:
   a += 3</a><a style=""""></a></div></div>","backspace","","1","","","backspace",""
"","html-keyboard-response","275","637613","0.0-8.0-10.0-0.0-0.0","4040","<div><div style=""""><a style=""white-space:pre-wrap;""> while a >= 12:
   a /= 3
   a *= 2</a><a style=""""></a></div></div>","6","6","1","53","while a >= 12:
   a /= 3
   a *= 2","6","0"
"","html-keyboard-response","276","639110","0.0-8.0-10.0-1.0-0.0","987","<div><div style=""""><a style=""white-space:pre-wrap;""> while a >= 12:
   a /= 3
   a *= 2</a><a style=""""></a></div></div>","12","12","1","53","while a >= 12:
   a /= 3
   a *= 2","12","1"
"","html-keyboard-response","277","642129","0.0-8.0-10.0-2.0-0.0","2508","<div><div style=""""><a style=""white-space:pre-wrap;""> while a >= 12:
   a /= 3
   a *= 2</a><a style=""""></a></div></div>","4","4","1","53","while a >= 12:
   a /= 3
   a *= 2","4","2"
"","html-keyboard-response","278","644293","0.0-8.0-10.0-3.0-0.0","1660","<div><div style=""""><a style=""white-space:pre-wrap;""> while a >= 12:
   a /= 3
   a *= 2</a><a style=""""></a></div></div>","6","8","0","53","while a >= 12:
   a /= 3
   a *= 2","8","3"
"","html-keyboard-response","280","648662","0.0-8.0-10.0-4.0-0.0","348","<div><div style=""""><a style=""white-space:pre-wrap;""> while a >= 12:
   a /= 3
   a *= 2</a><a style=""""></a></div></div>","backspace","","1","","","backspace",""
"","html-keyboard-response","281","651733","0.0-8.0-11.0-0.0-0.0","2563","<div><div style=""""><a style=""white-space:pre-wrap;""> while a >= 3:
   a *= 2
   a -= 9</a><a style=""""></a></div></div>","4","16","0","54","while a >= 3:
   a *= 2
   a -= 9","16","0"
"","html-keyboard-response","283","656786","0.0-8.0-11.0-1.0-0.0","1030","<div><div style=""""><a style=""white-space:pre-wrap;""> while a >= 3:
   a *= 2
   a -= 9</a><a style=""""></a></div></div>","7","7","1","54","while a >= 3:
   a *= 2
   a -= 9","7","1"
"","html-keyboard-response","284","659989","0.0-8.0-11.0-2.0-0.0","2690","<div><div style=""""><a style=""white-space:pre-wrap;""> while a >= 3:
   a *= 2
   a -= 9</a><a style=""""></a></div></div>","14","14","1","54","while a >= 3:
   a *= 2
   a -= 9","14","2"
"","html-keyboard-response","285","661930","0.0-8.0-11.0-3.0-0.0","1438","<div><div style=""""><a style=""white-space:pre-wrap;""> while a >= 3:
   a *= 2
   a -= 9</a><a style=""""></a></div></div>","5","5","1","54","while a >= 3:
   a *= 2
   a -= 9","5","3"
"","html-keyboard-response","286","664388","0.0-8.0-11.0-4.0-0.0","1953","<div><div style=""""><a style=""white-space:pre-wrap;""> while a >= 3:
   a *= 2
   a -= 9</a><a style=""""></a></div></div>","10","10","1","54","while a >= 3:
   a *= 2
   a -= 9","10","4"
"","html-keyboard-response","287","665411","0.0-8.0-11.0-5.0-0.0","511","<div><div style=""""><a style=""white-space:pre-wrap;""> while a >= 3:
   a *= 2
   a -= 9</a><a style=""""></a></div></div>","1","1","1","54","while a >= 3:
   a *= 2
   a -= 9","1","5"
"","html-keyboard-response","288","666023","0.0-8.0-11.0-6.0-0.0","106","<div><div style=""""><a style=""white-space:pre-wrap;""> while a >= 3:
   a *= 2
   a -= 9</a><a style=""""></a></div></div>","backspace","","1","","","backspace",""
"","html-keyboard-response","289","684423","0.0-9.0-0.0-0.0","17883","<p style=""position:absolute; top:30%; font-size:25px; color:green;"" >Take a short break now</p>"," ","","","","","",""
"","html-keyboard-response","290","685108","0.0-9.0-1.0","684","<p style=""font-size: 25px;"">Please press space to start the next program<br>>>>>>></p>"," ","","","","","",""
"","html-keyboard-response","291","685782","0.0-9.0-2.0","673","<div><div style="" font-size:25px; color:green;""><a style=""white-space:pre-wrap;""> a = 16</a><a style=""""></a></div></div>","","null","","73","a = 16","",""
"","html-keyboard-response","292","689226","0.0-9.0-4.0-0.0-0.0","2933","<div><div style=""""><a style=""white-space:pre-wrap;""> for i in [1, 2]:
   a /= 2</a><a style=""""></a></div></div>","8","8","1","74","for i in [1, 2]:
   a /= 2","8","0"
"","html-keyboard-response","293","690347","0.0-9.0-4.0-1.0-0.0","614","<div><div style=""""><a style=""white-space:pre-wrap;""> for i in [1, 2]:
   a /= 2</a><a style=""""></a></div></div>","4","4","1","74","for i in [1, 2]:
   a /= 2","4","1"
"","html-keyboard-response","294","691107","0.0-9.0-4.0-2.0-0.0","244","<div><div style=""""><a style=""white-space:pre-wrap;""> for i in [1, 2]:
   a /= 2</a><a style=""""></a></div></div>","backspace","","1","","","backspace",""
"","html-keyboard-response","295","694657","0.0-9.0-5.0-0.0-0.0","3036","<div><div style=""""><a style=""white-space:pre-wrap;""> while a <= 11:
   a = round_up(a*1.5)</a><a style=""""></a></div></div>","6","6","1","75","while a <= 11:
   a = round_up(a*1.5)","6","0"
"","html-keyboard-response","296","696322","0.0-9.0-5.0-1.0-0.0","1154","<div><div style=""""><a style=""white-space:pre-wrap;""> while a <= 11:
   a = round_up(a*1.5)</a><a style=""""></a></div></div>","9","9","1","75","while a <= 11:
   a = round_up(a*1.5)","9","1"
"","html-keyboard-response","297","699155","0.0-9.0-5.0-2.0-0.0","2329","<div><div style=""""><a style=""white-space:pre-wrap;""> while a <= 11:
   a = round_up(a*1.5)</a><a style=""""></a></div></div>","14","14","1","75","while a <= 11:
   a = round_up(a*1.5)","14","2"
"","html-keyboard-response","298","700021","0.0-9.0-5.0-3.0-0.0","358","<div><div style=""""><a style=""white-space:pre-wrap;""> while a <= 11:
   a = round_up(a*1.5)</a><a style=""""></a></div></div>","backspace","","1","","","backspace",""
"","html-keyboard-response","299","704183","0.0-9.0-6.0-0.0-0.0","3652","<div><div style=""""><a style=""white-space:pre-wrap;""> while a >= 13:
   a += 5
   a -= 6</a><a style=""""></a></div></div>","19","19","1","76","while a >= 13:
   a += 5
   a -= 6","19","0"
"","html-keyboard-response","300","705966","0.0-9.0-6.0-1.0-0.0","1271","<div><div style=""""><a style=""white-space:pre-wrap;""> while a >= 13:
   a += 5
   a -= 6</a><a style=""""></a></div></div>","13","13","1","76","while a >= 13:
   a += 5
   a -= 6","13","1"
"","html-keyboard-response","301","707705","0.0-9.0-6.0-2.0-0.0","1224","<div><div style=""""><a style=""white-space:pre-wrap;""> while a >= 13:
   a += 5
   a -= 6</a><a style=""""></a></div></div>","18","18","1","76","while a >= 13:
   a += 5
   a -= 6","18","2"
"","html-keyboard-response","302","709798","0.0-9.0-6.0-3.0-0.0","1579","<div><div style=""""><a style=""white-space:pre-wrap;""> while a >= 13:
   a += 5
   a -= 6</a><a style=""""></a></div></div>","12","12","1","76","while a >= 13:
   a += 5
   a -= 6","12","3"
"","html-keyboard-response","303","711172","0.0-9.0-6.0-4.0-0.0","867","<div><div style=""""><a style=""white-space:pre-wrap;""> while a >= 13:
   a += 5
   a -= 6</a><a style=""""></a></div></div>","backspace","","1","","","backspace",""
"","html-keyboard-response","304","718086","0.0-9.0-7.0-0.0-0.0","6412","<div><div style=""""><a style=""white-space:pre-wrap;""> for i in [1, 2, 3]:
   a = average(a,4)</a><a style=""""></a></div></div>","9","8","0","77","for i in [1, 2, 3]:
   a = average(a,4)","8","0"
"","html-keyboard-response","306","722145","0.0-9.0-7.0-1.0-0.0","43","<div><div style=""""><a style=""white-space:pre-wrap;""> for i in [1, 2, 3]:
   a = average(a,4)</a><a style=""""></a></div></div>","6","6","1","77","for i in [1, 2, 3]:
   a = average(a,4)","6","1"
"","html-keyboard-response","307","724184","0.0-9.0-7.0-2.0-0.0","1528","<div><div style=""""><a style=""white-space:pre-wrap;""> for i in [1, 2, 3]:
   a = average(a,4)</a><a style=""""></a></div></div>","5","5","1","77","for i in [1, 2, 3]:
   a = average(a,4)","5","2"
"","html-keyboard-response","308","725231","0.0-9.0-7.0-3.0-0.0","542","<div><div style=""""><a style=""white-space:pre-wrap;""> for i in [1, 2, 3]:
   a = average(a,4)</a><a style=""""></a></div></div>","backspace","","1","","","backspace",""
"","html-keyboard-response","309","727649","0.0-9.0-8.0-0.0-0.0","1903","<div><div style=""""><a style=""white-space:pre-wrap;""> for i in [1, 2]:
   a *= 3
   a -= 11</a><a style=""""></a></div></div>","15","15","1","78","for i in [1, 2]:
   a *= 3
   a -= 11","15","0"
"","html-keyboard-response","310","730101","0.0-9.0-8.0-1.0-0.0","1934","<div><div style=""""><a style=""white-space:pre-wrap;""> for i in [1, 2]:
   a *= 3
   a -= 11</a><a style=""""></a></div></div>","4","4","1","78","for i in [1, 2]:
   a *= 3
   a -= 11","4","1"
"","html-keyboard-response","311","732893","0.0-9.0-8.0-2.0-0.0","2285","<div><div style=""""><a style=""white-space:pre-wrap;""> for i in [1, 2]:
   a *= 3
   a -= 11</a><a style=""""></a></div></div>","12","12","1","78","for i in [1, 2]:
   a *= 3
   a -= 11","12","2"
"","html-keyboard-response","312","734526","0.0-9.0-8.0-3.0-0.0","1125","<div><div style=""""><a style=""white-space:pre-wrap;""> for i in [1, 2]:
   a *= 3
   a -= 11</a><a style=""""></a></div></div>","1","1","1","78","for i in [1, 2]:
   a *= 3
   a -= 11","1","3"
"","html-keyboard-response","313","735374","0.0-9.0-8.0-4.0-0.0","338","<div><div style=""""><a style=""white-space:pre-wrap;""> for i in [1, 2]:
   a *= 3
   a -= 11</a><a style=""""></a></div></div>","backspace","","1","","","backspace",""
"","html-keyboard-response","314","737381","0.0-9.0-9.0-0.0-0.0","1495","<div><div style=""""><a style=""white-space:pre-wrap;""> for i in [1, 2]:
   a *= 6
   a /= 2</a><a style=""""></a></div></div>","6","6","1","79","for i in [1, 2]:
   a *= 6
   a /= 2","6","0"
"","html-keyboard-response","315","738186","0.0-9.0-9.0-1.0-0.0","289","<div><div style=""""><a style=""white-space:pre-wrap;""> for i in [1, 2]:
   a *= 6
   a /= 2</a><a style=""""></a></div></div>","3","3","1","79","for i in [1, 2]:
   a *= 6
   a /= 2","3","1"
"","html-keyboard-response","316","740672","0.0-9.0-9.0-2.0-0.0","1971","<div><div style=""""><a style=""white-space:pre-wrap;""> for i in [1, 2]:
   a *= 6
   a /= 2</a><a style=""""></a></div></div>","18","18","1","79","for i in [1, 2]:
   a *= 6
   a /= 2","18","2"
"","html-keyboard-response","317","742432","0.0-9.0-9.0-3.0-0.0","1248","<div><div style=""""><a style=""white-space:pre-wrap;""> for i in [1, 2]:
   a *= 6
   a /= 2</a><a style=""""></a></div></div>","9","9","1","79","for i in [1, 2]:
   a *= 6
   a /= 2","9","3"
"","html-keyboard-response","318","743313","0.0-9.0-9.0-4.0-0.0","365","<div><div style=""""><a style=""white-space:pre-wrap;""> for i in [1, 2]:
   a *= 6
   a /= 2</a><a style=""""></a></div></div>","backspace","","1","","","backspace",""
"","html-keyboard-response","319","746015","0.0-9.0-10.0-0.0-0.0","2192","<div><div style=""""><a style=""white-space:pre-wrap;""> while a >= 7:
   a -= 2</a><a style=""""></a></div></div>","7","7","1","80","while a >= 7:
   a -= 2","7","0"
"","html-keyboard-response","320","746676","0.0-9.0-10.0-1.0-0.0","149","<div><div style=""""><a style=""white-space:pre-wrap;""> while a >= 7:
   a -= 2</a><a style=""""></a></div></div>","5","5","1","80","while a >= 7:
   a -= 2","5","1"
"","html-keyboard-response","321","747380","0.0-9.0-10.0-2.0-0.0","194","<div><div style=""""><a style=""white-space:pre-wrap;""> while a >= 7:
   a -= 2</a><a style=""""></a></div></div>","backspace","","1","","","backspace",""
"","html-keyboard-response","322","751272","0.0-9.0-11.0-0.0-0.0","3377","<div><div style=""""><a style=""white-space:pre-wrap;""> while a <= 7:
   a += 9
   a /= 2</a><a style=""""></a></div></div>","14","14","1","81","while a <= 7:
   a += 9
   a /= 2","14","0"
"","html-keyboard-response","323","753039","0.0-9.0-11.0-1.0-0.0","1263","<div><div style=""""><a style=""white-space:pre-wrap;""> while a <= 7:
   a += 9
   a /= 2</a><a style=""""></a></div></div>","7","7","1","81","while a <= 7:
   a += 9
   a /= 2","7","1"
"","html-keyboard-response","324","755117","0.0-9.0-11.0-2.0-0.0","1563","<div><div style=""""><a style=""white-space:pre-wrap;""> while a <= 7:
   a += 9
   a /= 2</a><a style=""""></a></div></div>","16","16","1","81","while a <= 7:
   a += 9
   a /= 2","16","2"
"","html-keyboard-response","325","756073","0.0-9.0-11.0-3.0-0.0","453","<div><div style=""""><a style=""white-space:pre-wrap;""> while a <= 7:
   a += 9
   a /= 2</a><a style=""""></a></div></div>","8","8","1","81","while a <= 7:
   a += 9
   a /= 2","8","3"
"","html-keyboard-response","326","756730","0.0-9.0-11.0-4.0-0.0","153","<div><div style=""""><a style=""white-space:pre-wrap;""> while a <= 7:
   a += 9
   a /= 2</a><a style=""""></a></div></div>","backspace","","1","","","backspace",""
"","html-keyboard-response","327","758484","0.0-10.0-1.0","1243","<p style=""font-size: 25px;"">Please press space to start the next program<br>>>>>>></p>"," ","","","","","",""
"","html-keyboard-response","328","759136","0.0-10.0-2.0","651","<div><div style="" font-size:25px; color:green;""><a style=""white-space:pre-wrap;""> a = 11</a><a style=""""></a></div></div>","","null","","55","a = 11","",""
"","html-keyboard-response","329","763090","0.0-10.0-4.0-0.0-0.0","3440","<div><div style=""""><a style=""white-space:pre-wrap;""> while a >= 5:
   a += 4
   a /= 3</a><a style=""""></a></div></div>","15","15","1","56","while a >= 5:
   a += 4
   a /= 3","15","0"
"","html-keyboard-response","330","764603","0.0-10.0-4.0-1.0-0.0","996","<div><div style=""""><a style=""white-space:pre-wrap;""> while a >= 5:
   a += 4
   a /= 3</a><a style=""""></a></div></div>","5","5","1","56","while a >= 5:
   a += 4
   a /= 3","5","1"
"","html-keyboard-response","331","767402","0.0-10.0-4.0-2.0-0.0","2295","<div><div style=""""><a style=""white-space:pre-wrap;""> while a >= 5:
   a += 4
   a /= 3</a><a style=""""></a></div></div>","9","9","1","56","while a >= 5:
   a += 4
   a /= 3","9","2"
"","html-keyboard-response","332","768195","0.0-10.0-4.0-3.0-0.0","290","<div><div style=""""><a style=""white-space:pre-wrap;""> while a >= 5:
   a += 4
   a /= 3</a><a style=""""></a></div></div>","3","3","1","56","while a >= 5:
   a += 4
   a /= 3","3","3"
"","html-keyboard-response","333","768726","0.0-10.0-4.0-4.0-0.0","17","<div><div style=""""><a style=""white-space:pre-wrap;""> while a >= 5:
   a += 4
   a /= 3</a><a style=""""></a></div></div>","backspace","","1","","","backspace",""
"","html-keyboard-response","334","777297","0.0-10.0-5.0-0.0-0.0","8067","<div><div style=""""><a style=""white-space:pre-wrap;""> for i in [1, 2]:
   a = round_down(a*2.5)</a><a style=""""></a></div></div>","7","7","1","57","for i in [1, 2]:
   a = round_down(a*2.5)","7","0"
"","html-keyboard-response","335","782431","0.0-10.0-5.0-1.0-0.0","4620","<div><div style=""""><a style=""white-space:pre-wrap;""> for i in [1, 2]:
   a = round_down(a*2.5)</a><a style=""""></a></div></div>","17","17","1","57","for i in [1, 2]:
   a = round_down(a*2.5)","17","1"
"","html-keyboard-response","336","783770","0.0-10.0-5.0-2.0-0.0","822","<div><div style=""""><a style=""white-space:pre-wrap;""> for i in [1, 2]:
   a = round_down(a*2.5)</a><a style=""""></a></div></div>","backspace","","1","","","backspace",""
"","html-keyboard-response","337","787380","0.0-10.0-6.0-0.0-0.0","3106","<div><div style=""""><a style=""white-space:pre-wrap;""> for i in [1, 2, 3, 4]:
   a = average(a,1)</a><a style=""""></a></div></div>","9","9","1","58","for i in [1, 2, 3, 4]:
   a = average(a,1)","9","0"
"","html-keyboard-response","338","789009","0.0-10.0-6.0-1.0-0.0","1117","<div><div style=""""><a style=""white-space:pre-wrap;""> for i in [1, 2, 3, 4]:
   a = average(a,1)</a><a style=""""></a></div></div>","5","5","1","58","for i in [1, 2, 3, 4]:
   a = average(a,1)","5","1"
"","html-keyboard-response","339","790878","0.0-10.0-6.0-2.0-0.0","1360","<div><div style=""""><a style=""white-space:pre-wrap;""> for i in [1, 2, 3, 4]:
   a = average(a,1)</a><a style=""""></a></div></div>","3","3","1","58","for i in [1, 2, 3, 4]:
   a = average(a,1)","3","2"
"","html-keyboard-response","340","792325","0.0-10.0-6.0-3.0-0.0","932","<div><div style=""""><a style=""white-space:pre-wrap;""> for i in [1, 2, 3, 4]:
   a = average(a,1)</a><a style=""""></a></div></div>","2","2","1","58","for i in [1, 2, 3, 4]:
   a = average(a,1)","2","3"
"","html-keyboard-response","341","793039","0.0-10.0-6.0-4.0-0.0","207","<div><div style=""""><a style=""white-space:pre-wrap;""> for i in [1, 2, 3, 4]:
   a = average(a,1)</a><a style=""""></a></div></div>","backspace","","1","","","backspace",""
"","html-keyboard-response","342","795121","0.0-10.0-7.0-0.0-0.0","1566","<div><div style=""""><a style=""white-space:pre-wrap;""> for i in [1, 2]:
   a *= 3
   a -= 1</a><a style=""""></a></div></div>","6","6","1","59","for i in [1, 2]:
   a *= 3
   a -= 1","6","0"
"","html-keyboard-response","343","796386","0.0-10.0-7.0-1.0-0.0","749","<div><div style=""""><a style=""white-space:pre-wrap;""> for i in [1, 2]:
   a *= 3
   a -= 1</a><a style=""""></a></div></div>","5","5","1","59","for i in [1, 2]:
   a *= 3
   a -= 1","5","1"
"","html-keyboard-response","344","797524","0.0-10.0-7.0-2.0-0.0","624","<div><div style=""""><a style=""white-space:pre-wrap;""> for i in [1, 2]:
   a *= 3
   a -= 1</a><a style=""""></a></div></div>","15","15","1","59","for i in [1, 2]:
   a *= 3
   a -= 1","15","2"
"","html-keyboard-response","345","798239","0.0-10.0-7.0-3.0-0.0","208","<div><div style=""""><a style=""white-space:pre-wrap;""> for i in [1, 2]:
   a *= 3
   a -= 1</a><a style=""""></a></div></div>","14","14","1","59","for i in [1, 2]:
   a *= 3
   a -= 1","14","3"
"","html-keyboard-response","346","799091","0.0-10.0-7.0-4.0-0.0","338","<div><div style=""""><a style=""white-space:pre-wrap;""> for i in [1, 2]:
   a *= 3
   a -= 1</a><a style=""""></a></div></div>","backspace","","1","","","backspace",""
"","html-keyboard-response","347","804018","0.0-10.0-8.0-0.0-0.0","4416","<div><div style=""""><a style=""white-space:pre-wrap;""> while a >= 4:
   a -= 5
   a += 1</a><a style=""""></a></div></div>","11","9","0","60","while a >= 4:
   a -= 5
   a += 1","9","0"
"","html-keyboard-response","349","808391","0.0-10.0-8.0-1.0-0.0","341","<div><div style=""""><a style=""white-space:pre-wrap;""> while a >= 4:
   a -= 5
   a += 1</a><a style=""""></a></div></div>","10","10","1","60","while a >= 4:
   a -= 5
   a += 1","10","1"
"","html-keyboard-response","350","810238","0.0-10.0-8.0-2.0-0.0","1339","<div><div style=""""><a style=""white-space:pre-wrap;""> while a >= 4:
   a -= 5
   a += 1</a><a style=""""></a></div></div>","5","5","1","60","while a >= 4:
   a -= 5
   a += 1","5","2"
"","html-keyboard-response","351","811118","0.0-10.0-8.0-3.0-0.0","374","<div><div style=""""><a style=""white-space:pre-wrap;""> while a >= 4:
   a -= 5
   a += 1</a><a style=""""></a></div></div>","6","6","1","60","while a >= 4:
   a -= 5
   a += 1","6","3"
"","html-keyboard-response","352","812662","0.0-10.0-8.0-4.0-0.0","1037","<div><div style=""""><a style=""white-space:pre-wrap;""> while a >= 4:
   a -= 5
   a += 1</a><a style=""""></a></div></div>","3","1","0","60","while a >= 4:
   a -= 5
   a += 1","1","4"
"","html-keyboard-response","354","817042","0.0-10.0-8.0-5.0-0.0","357","<div><div style=""""><a style=""white-space:pre-wrap;""> while a >= 4:
   a -= 5
   a += 1</a><a style=""""></a></div></div>","2","2","1","60","while a >= 4:
   a -= 5
   a += 1","2","5"
"","html-keyboard-response","355","817826","0.0-10.0-8.0-6.0-0.0","272","<div><div style=""""><a style=""white-space:pre-wrap;""> while a >= 4:
   a -= 5
   a += 1</a><a style=""""></a></div></div>","backspace","","1","","","backspace",""
"","html-keyboard-response","356","820047","0.0-10.0-9.0-0.0-0.0","1719","<div><div style=""""><a style=""white-space:pre-wrap;""> while a <= 15:
   a *= 3</a><a style=""""></a></div></div>","6","6","1","61","while a <= 15:
   a *= 3","6","0"
"","html-keyboard-response","357","822437","0.0-10.0-9.0-1.0-0.0","1876","<div><div style=""""><a style=""white-space:pre-wrap;""> while a <= 15:
   a *= 3</a><a style=""""></a></div></div>","12","18","0","61","while a <= 15:
   a *= 3","18","1"
"","html-keyboard-response","359","828246","0.0-10.0-9.0-2.0-0.0","1789","<div><div style=""""><a style=""white-space:pre-wrap;""> while a <= 15:
   a *= 3</a><a style=""""></a></div></div>","backspace","","1","","","backspace",""
"","html-keyboard-response","360","830776","0.0-10.0-10.0-0.0-0.0","2015","<div><div style=""""><a style=""white-space:pre-wrap;""> while a >= 11:
   a /= 3
   a *= 2</a><a style=""""></a></div></div>","6","6","1","62","while a >= 11:
   a /= 3
   a *= 2","6","0"
"","html-keyboard-response","361","832971","0.0-10.0-10.0-1.0-0.0","1692","<div><div style=""""><a style=""white-space:pre-wrap;""> while a >= 11:
   a /= 3
   a *= 2</a><a style=""""></a></div></div>","12","12","1","62","while a >= 11:
   a /= 3
   a *= 2","12","1"
"","html-keyboard-response","362","835618","0.0-10.0-10.0-2.0-0.0","2131","<div><div style=""""><a style=""white-space:pre-wrap;""> while a >= 11:
   a /= 3
   a *= 2</a><a style=""""></a></div></div>","4","4","1","62","while a >= 11:
   a /= 3
   a *= 2","4","2"
"","html-keyboard-response","363","838089","0.0-10.0-10.0-3.0-0.0","1958","<div><div style=""""><a style=""white-space:pre-wrap;""> while a >= 11:
   a /= 3
   a *= 2</a><a style=""""></a></div></div>","8","8","1","62","while a >= 11:
   a /= 3
   a *= 2","8","3"
"","html-keyboard-response","364","838761","0.0-10.0-10.0-4.0-0.0","160","<div><div style=""""><a style=""white-space:pre-wrap;""> while a >= 11:
   a /= 3
   a *= 2</a><a style=""""></a></div></div>","backspace","","1","","","backspace",""
"","html-keyboard-response","365","841710","0.0-10.0-11.0-0.0-0.0","2446","<div><div style=""""><a style=""white-space:pre-wrap;""> for i in [1, 2, 3]:
   a += 4</a><a style=""""></a></div></div>","12","12","1","63","for i in [1, 2, 3]:
   a += 4","12","0"
"","html-keyboard-response","366","842557","0.0-10.0-11.0-1.0-0.0","334","<div><div style=""""><a style=""white-space:pre-wrap;""> for i in [1, 2, 3]:
   a += 4</a><a style=""""></a></div></div>","16","16","1","63","for i in [1, 2, 3]:
   a += 4","16","1"
"","html-keyboard-response","367","843306","0.0-10.0-11.0-2.0-0.0","242","<div><div style=""""><a style=""white-space:pre-wrap;""> for i in [1, 2, 3]:
   a += 4</a><a style=""""></a></div></div>","20","20","1","63","for i in [1, 2, 3]:
   a += 4","20","2"
"","html-keyboard-response","368","843998","0.0-10.0-11.0-3.0-0.0","175","<div><div style=""""><a style=""white-space:pre-wrap;""> for i in [1, 2, 3]:
   a += 4</a><a style=""""></a></div></div>","backspace","","1","","","backspace",""
"","html-keyboard-response","369","845868","0.0-11.0-1.0","1365","<p style=""font-size: 25px;"">Please press space to start the next program<br>>>>>>></p>"," ","","","","","",""
"","html-keyboard-response","370","846766","0.0-11.0-2.0","897","<div><div style="" font-size:25px; color:green;""><a style=""white-space:pre-wrap;""> a = 9</a><a style=""""></a></div></div>","","null","","100","a = 9","",""
"","html-keyboard-response","371","848704","0.0-11.0-4.0-0.0-0.0","1429","<div><div style=""""><a style=""white-space:pre-wrap;""> for i in [1, 2]:
   a /= 3</a><a style=""""></a></div></div>","3","3","1","101","for i in [1, 2]:
   a /= 3","3","0"
"","html-keyboard-response","372","849369","0.0-11.0-4.0-1.0-0.0","155","<div><div style=""""><a style=""white-space:pre-wrap;""> for i in [1, 2]:
   a /= 3</a><a style=""""></a></div></div>","1","1","1","101","for i in [1, 2]:
   a /= 3","1","1"
"","html-keyboard-response","373","850075","0.0-11.0-4.0-2.0-0.0","194","<div><div style=""""><a style=""white-space:pre-wrap;""> for i in [1, 2]:
   a /= 3</a><a style=""""></a></div></div>","backspace","","1","","","backspace",""
"","html-keyboard-response","374","852161","0.0-11.0-5.0-0.0-0.0","1570","<div><div style=""""><a style=""white-space:pre-wrap;""> for i in [1, 2, 3]:
   a += 6</a><a style=""""></a></div></div>","7","7","1","102","for i in [1, 2, 3]:
   a += 6","7","0"
"","html-keyboard-response","375","854476","0.0-11.0-5.0-1.0-0.0","1802","<div><div style=""""><a style=""white-space:pre-wrap;""> for i in [1, 2, 3]:
   a += 6</a><a style=""""></a></div></div>","13","13","1","102","for i in [1, 2, 3]:
   a += 6","13","1"
"","html-keyboard-response","376","856752","0.0-11.0-5.0-2.0-0.0","1767","<div><div style=""""><a style=""white-space:pre-wrap;""> for i in [1, 2, 3]:
   a += 6</a><a style=""""></a></div></div>","19","19","1","102","for i in [1, 2, 3]:
   a += 6","19","2"
"","html-keyboard-response","377","857515","0.0-11.0-5.0-3.0-0.0","246","<div><div style=""""><a style=""white-space:pre-wrap;""> for i in [1, 2, 3]:
   a += 6</a><a style=""""></a></div></div>","backspace","","1","","","backspace",""
"","html-keyboard-response","378","860044","0.0-11.0-6.0-0.0-0.0","2016","<div><div style=""""><a style=""white-space:pre-wrap;""> while a >= 10:
   a += 1
   a -= 8</a><a style=""""></a></div></div>","20","20","1","103","while a >= 10:
   a += 1
   a -= 8","20","0"
"","html-keyboard-response","379","861148","0.0-11.0-6.0-1.0-0.0","601","<div><div style=""""><a style=""white-space:pre-wrap;""> while a >= 10:
   a += 1
   a -= 8</a><a style=""""></a></div></div>","12","12","1","103","while a >= 10:
   a += 1
   a -= 8","12","1"
"","html-keyboard-response","380","862960","0.0-11.0-6.0-2.0-0.0","1306","<div><div style=""""><a style=""white-space:pre-wrap;""> while a >= 10:
   a += 1
   a -= 8</a><a style=""""></a></div></div>","13","13","1","103","while a >= 10:
   a += 1
   a -= 8","13","2"
"","html-keyboard-response","381","868085","0.0-11.0-6.0-3.0-0.0","4614","<div><div style=""""><a style=""white-space:pre-wrap;""> while a >= 10:
   a += 1
   a -= 8</a><a style=""""></a></div></div>","5","5","1","103","while a >= 10:
   a += 1
   a -= 8","5","3"
"","html-keyboard-response","382","869764","0.0-11.0-6.0-4.0-0.0","1165","<div><div style=""""><a style=""white-space:pre-wrap;""> while a >= 10:
   a += 1
   a -= 8</a><a style=""""></a></div></div>","backspace","","1","","","backspace",""
"","html-keyboard-response","383","872107","0.0-11.0-7.0-0.0-0.0","1832","<div><div style=""""><a style=""white-space:pre-wrap;""> while a <= 6:
   a *= 3
   a -= 9</a><a style=""""></a></div></div>","15","15","1","104","while a <= 6:
   a *= 3
   a -= 9","15","0"
"","html-keyboard-response","384","876085","0.0-11.0-7.0-1.0-0.0","3461","<div><div style=""""><a style=""white-space:pre-wrap;""> while a <= 6:
   a *= 3
   a -= 9</a><a style=""""></a></div></div>","6","6","1","104","while a <= 6:
   a *= 3
   a -= 9","6","1"
"","html-keyboard-response","385","878012","0.0-11.0-7.0-2.0-0.0","1416","<div><div style=""""><a style=""white-space:pre-wrap;""> while a <= 6:
   a *= 3
   a -= 9</a><a style=""""></a></div></div>","18","18","1","104","while a <= 6:
   a *= 3
   a -= 9","18","2"
"","html-keyboard-response","386","881883","0.0-11.0-7.0-3.0-0.0","3366","<div><div style=""""><a style=""white-space:pre-wrap;""> while a <= 6:
   a *= 3
   a -= 9</a><a style=""""></a></div></div>","9","9","1","104","while a <= 6:
   a *= 3
   a -= 9","9","3"
"","html-keyboard-response","387","882972","0.0-11.0-7.0-4.0-0.0","581","<div><div style=""""><a style=""white-space:pre-wrap;""> while a <= 6:
   a *= 3
   a -= 9</a><a style=""""></a></div></div>","backspace","","1","","","backspace",""
"","html-keyboard-response","388","885807","0.0-11.0-8.0-0.0-0.0","2323","<div><div style=""""><a style=""white-space:pre-wrap;""> for i in [1, 2, 3]:
   a = average(a, 1)</a><a style=""""></a></div></div>","5","5","1","105","for i in [1, 2, 3]:
   a = average(a, 1)","5","0"
"","html-keyboard-response","389","888037","0.0-11.0-8.0-1.0-0.0","1716","<div><div style=""""><a style=""white-space:pre-wrap;""> for i in [1, 2, 3]:
   a = average(a, 1)</a><a style=""""></a></div></div>","3","3","1","105","for i in [1, 2, 3]:
   a = average(a, 1)","3","1"
"","html-keyboard-response","390","889787","0.0-11.0-8.0-2.0-0.0","1234","<div><div style=""""><a style=""white-space:pre-wrap;""> for i in [1, 2, 3]:
   a = average(a, 1)</a><a style=""""></a></div></div>","2","2","1","105","for i in [1, 2, 3]:
   a = average(a, 1)","2","2"
"","html-keyboard-response","391","890485","0.0-11.0-8.0-3.0-0.0","185","<div><div style=""""><a style=""white-space:pre-wrap;""> for i in [1, 2, 3]:
   a = average(a, 1)</a><a style=""""></a></div></div>","backspace","","1","","","backspace",""
"","html-keyboard-response","392","892269","0.0-11.0-9.0-0.0-0.0","1274","<div><div style=""""><a style=""white-space:pre-wrap;""> while a <= 9:
   a -= 1
   a *= 5</a><a style=""""></a></div></div>","1","1","1","106","while a <= 9:
   a -= 1
   a *= 5","1","0"
"","html-keyboard-response","393","893757","0.0-11.0-9.0-1.0-0.0","979","<div><div style=""""><a style=""white-space:pre-wrap;""> while a <= 9:
   a -= 1
   a *= 5</a><a style=""""></a></div></div>","5","5","1","106","while a <= 9:
   a -= 1
   a *= 5","5","1"
"","html-keyboard-response","394","895388","0.0-11.0-9.0-2.0-0.0","1114","<div><div style=""""><a style=""white-space:pre-wrap;""> while a <= 9:
   a -= 1
   a *= 5</a><a style=""""></a></div></div>","4","4","1","106","while a <= 9:
   a -= 1
   a *= 5","4","2"
"","html-keyboard-response","395","896733","0.0-11.0-9.0-3.0-0.0","837","<div><div style=""""><a style=""white-space:pre-wrap;""> while a <= 9:
   a -= 1
   a *= 5</a><a style=""""></a></div></div>","20","20","1","106","while a <= 9:
   a -= 1
   a *= 5","20","3"
"","html-keyboard-response","396","897465","0.0-11.0-9.0-4.0-0.0","214","<div><div style=""""><a style=""white-space:pre-wrap;""> while a <= 9:
   a -= 1
   a *= 5</a><a style=""""></a></div></div>","backspace","","1","","","backspace",""
"","html-keyboard-response","397","900092","0.0-11.0-10.0-0.0-0.0","2116","<div><div style=""""><a style=""white-space:pre-wrap;""> while a >= 12:
   a -= 3</a><a style=""""></a></div></div>","17","17","1","107","while a >= 12:
   a -= 3","17","0"
"","html-keyboard-response","398","901371","0.0-11.0-10.0-1.0-0.0","775","<div><div style=""""><a style=""white-space:pre-wrap;""> while a >= 12:
   a -= 3</a><a style=""""></a></div></div>","14","14","1","107","while a >= 12:
   a -= 3","14","1"
"","html-keyboard-response","399","902351","0.0-11.0-10.0-2.0-0.0","466","<div><div style=""""><a style=""white-space:pre-wrap;""> while a >= 12:
   a -= 3</a><a style=""""></a></div></div>","11","11","1","107","while a >= 12:
   a -= 3","11","2"
"","html-keyboard-response","400","903770","0.0-11.0-10.0-3.0-0.0","910","<div><div style=""""><a style=""white-space:pre-wrap;""> while a >= 12:
   a -= 3</a><a style=""""></a></div></div>","8","","0","","","backspace",""
"","html-keyboard-response","401","907782","0.0-11.0-10.0-3.0-1.0-0.0","null","<div><p style=""font-size:25px; color:green;"">end of loop<br>>>>>>></p>
						<div>Hit the ""end loop"" key to continue</div></div>","null","","","","","",""
"","html-keyboard-response","402","913712","0.0-11.0-10.0-3.1-0.1","5927","<div><div style=""""><a style=""white-space:pre-wrap;""> while a >= 12:
   a -= 3</a><a style=""""></a></div></div>","backspace","","1","","","backspace",""
"","html-keyboard-response","403","916786","0.0-11.0-11.0-0.0-0.0","2569","<div><div style=""""><a style=""white-space:pre-wrap;""> for i in [1, 2]:
   a -= 5</a><a style=""""></a></div></div>","6","6","1","108","for i in [1, 2]:
   a -= 5","6","0"
"","html-keyboard-response","404","920784","0.0-11.0-11.0-1.0-0.0","3489","<div><div style=""""><a style=""white-space:pre-wrap;""> for i in [1, 2]:
   a -= 5</a><a style=""""></a></div></div>","1","1","1","108","for i in [1, 2]:
   a -= 5","1","1"
"","html-keyboard-response","405","922295","0.0-11.0-11.0-2.0-0.0","997","<div><div style=""""><a style=""white-space:pre-wrap;""> for i in [1, 2]:
   a -= 5</a><a style=""""></a></div></div>","backspace","","1","","","backspace",""
"","html-keyboard-response","406","923922","0.0-12.0-1.0","1123","<p style=""font-size: 25px;"">Please press space to start the next program<br>>>>>>></p>"," ","","","","","",""
